// thickness-independent fraction of light power (for rudimentary optics) between 0 and 1		
simple transmission coefficient:		
1		
		
// wavelength-independent absorption coefficient 'a' according to I(z)=I0*exp(-a*z) in [1/m]		
lambert beer absorption coefficient:		
93340		
		
// three-column refractive data for TMM calculations with wavelength [nm], n, k (must be tab-separated)		
refractive data:		
300	2.0854	0.150876
300.665	2.0852	0.1492425
301.331	2.0849	0.147609
301.996	2.0846	0.14604975
302.661	2.0843	0.14441625
303.327	2.084	0.14278275
303.992	2.0836	0.1412235
304.657	2.0833	0.13959
305.323	2.0829	0.13803075
305.988	2.0825	0.1364715
306.653	2.0822	0.134838
307.319	2.0817	0.13327875
307.984	2.0813	0.1317195
308.649	2.0809	0.13016025
309.315	2.0805	0.128601
309.98	2.08	0.12704175
310.645	2.0795	0.1254825
311.311	2.079	0.1239975
311.976	2.0785	0.12243825
312.641	2.078	0.12095325
313.307	2.0775	0.119394
313.972	2.077	0.117909
314.637	2.0764	0.11634975
315.303	2.0758	0.11486475
315.968	2.0752	0.11337975
316.633	2.0747	0.11189475
317.299	2.074	0.11040975
317.964	2.0734	0.10892475
318.629	2.0728	0.10743975
319.295	2.0721	0.10595475
319.96	2.0715	0.10446975
320.625	2.0708	0.103059
321.291	2.0701	0.101574
321.956	2.0694	0.10016325
322.621	2.0687	0.0987525
323.287	2.068	0.0972675
323.952	2.0673	0.09585675
324.617	2.0665	0.094446
325.283	2.0657	0.09303525
325.948	2.065	0.0916245
326.613	2.0642	0.090288
327.279	2.0634	0.08887725
327.944	2.0626	0.0874665
328.609	2.0617	0.08613
329.275	2.0609	0.0847935
329.94	2.0601	0.08338275
330.605	2.0592	0.08204625
331.271	2.0583	0.08070975
331.936	2.0574	0.07937325
332.601	2.0565	0.07803675
333.267	2.0556	0.0767745
333.932	2.0547	0.075438
334.597	2.0538	0.07417575
335.263	2.0528	0.07283925
335.928	2.0519	0.071577
336.593	2.0509	0.07031475
337.259	2.0499	0.0690525
337.924	2.0489	0.06779025
338.589	2.0479	0.066528
339.255	2.0469	0.06526575
339.92	2.0459	0.06407775
340.585	2.0448	0.0628155
341.251	2.0438	0.0616275
341.916	2.0427	0.06036525
342.581	2.0417	0.05917725
343.247	2.0406	0.05798925
343.912	2.0395	0.05680125
344.577	2.0384	0.0556875
345.243	2.0373	0.0544995
345.908	2.0362	0.05338575
346.573	2.035	0.05219775
347.239	2.0339	0.051084
347.904	2.0327	0.04997025
348.569	2.0316	0.0488565
349.235	2.0304	0.04774275
349.9	2.0292	0.04670325
350.565	2.028	0.0455895
351.231	2.0268	0.04455
351.896	2.0256	0.04343625
352.561	2.0244	0.04239675
353.227	2.0231	0.04135725
353.892	2.0219	0.04031775
354.557	2.0206	0.0393525
355.223	2.0194	0.038313
355.888	2.0181	0.03734775
356.553	2.0168	0.03630825
357.219	2.0156	0.035343
357.884	2.0143	0.03437775
358.549	2.013	0.03348675
359.215	2.0116	0.0325215
359.88	2.0103	0.03155625
360.545	2.009	0.03066525
361.211	2.0077	0.02977425
361.876	2.0063	0.02888325
362.541	2.005	0.02799225
363.207	2.0036	0.02710125
363.872	2.0022	0.0262845
364.537	2.0009	0.0253935
365.203	1.9995	0.02457675
365.868	1.9981	0.02376
366.533	1.9967	0.02294325
367.199	1.9953	0.02220075
367.864	1.9939	0.021384
368.529	1.9925	0.0206415
369.195	1.9911	0.019899
369.86	1.9897	0.0191565
370.525	1.9882	0.018414
371.191	1.9868	0.0176715
371.856	1.9854	0.01700325
372.521	1.9839	0.01626075
373.187	1.9825	0.0155925
373.852	1.981	0.01492425
374.517	1.9796	0.01433025
375.183	1.9781	0.013662
375.848	1.9766	0.013068
376.513	1.9752	0.012474
377.179	1.9737	0.01188
377.844	1.9722	0.011286
378.509	1.9707	0.010692
379.175	1.9693	0.01017225
379.84	1.9678	0.0096525
380.505	1.9663	0.00913275
381.171	1.9648	0.008613
381.836	1.9633	0.0081675
382.501	1.9619	0.00764775
383.167	1.9604	0.00720225
383.832	1.9589	0.00675675
384.497	1.9574	0.00631125
385.163	1.9559	0.00594
385.828	1.9544	0.00556875
386.493	1.953	0.0051975
387.159	1.9515	0.00482625
387.824	1.95	0.004455
388.489	1.9485	0.004158
389.155	1.9471	0.003861
389.82	1.9456	0.003564
390.485	1.9441	0.003267
391.151	1.9427	0.00297
391.816	1.9412	0.00274725
392.481	1.9398	0.0025245
393.147	1.9384	0.00230175
393.812	1.9369	0.00215325
394.477	1.9355	0.00200475
395.143	1.9341	0.001782
395.808	1.9327	0.00170775
396.473	1.9313	0.00155925
397.139	1.93	0.001485
397.804	1.9286	0.00141075
398.469	1.9273	0.0013365
399.135	1.926	0.00126225
399.8	1.9247	0.00126225
400.465	1.9234	0.00126225
401.131	1.9222	0.00126225
401.796	1.921	0.00126225
402.461	1.9199	0.00126225
403.127	1.9191	0.00126225
403.792	1.9176	0.00126225
404.457	1.9165	0.00126225
405.123	1.9154	0.00126225
405.788	1.9144	0.0013365
406.453	1.9133	0.0013365
407.119	1.9123	0.0013365
407.784	1.9113	0.0013365
408.449	1.9102	0.0013365
409.115	1.9092	0.0013365
409.78	1.9083	0.0013365
410.445	1.9073	0.0013365
411.111	1.9063	0.0013365
411.776	1.9054	0.0013365
412.441	1.9044	0.00141075
413.107	1.9035	0.00141075
413.772	1.9026	0.00141075
414.437	1.9017	0.00141075
415.103	1.9008	0.00141075
415.768	1.8999	0.00141075
416.433	1.899	0.00141075
417.099	1.8981	0.00141075
417.764	1.8973	0.00141075
418.429	1.8964	0.00141075
419.095	1.8955	0.001485
419.76	1.8947	0.001485
420.425	1.8939	0.001485
421.091	1.893	0.001485
421.756	1.8922	0.001485
422.421	1.8914	0.001485
423.087	1.8906	0.001485
423.752	1.8898	0.001485
424.417	1.889	0.001485
425.083	1.8882	0.001485
425.748	1.8874	0.00155925
426.413	1.8866	0.00155925
427.079	1.8859	0.00155925
427.744	1.8851	0.00155925
428.409	1.8843	0.00155925
429.075	1.8836	0.00155925
429.74	1.8828	0.00155925
430.405	1.8821	0.00155925
431.071	1.8813	0.00155925
431.736	1.8806	0.00155925
432.401	1.8799	0.0016335
433.067	1.8791	0.0016335
433.732	1.8784	0.0016335
434.397	1.8777	0.0016335
435.063	1.877	0.0016335
435.728	1.8763	0.0016335
436.393	1.8756	0.0016335
437.059	1.8749	0.0016335
437.724	1.8742	0.0016335
438.389	1.8735	0.00170775
439.055	1.8728	0.00170775
439.72	1.8721	0.00170775
440.385	1.8715	0.00170775
441.051	1.8708	0.00170775
441.716	1.8701	0.00170775
442.381	1.8695	0.00170775
443.047	1.8688	0.00170775
443.712	1.8681	0.00170775
444.377	1.8675	0.001782
445.043	1.8668	0.001782
445.708	1.8662	0.001782
446.373	1.8655	0.001782
447.039	1.8649	0.001782
447.704	1.8643	0.001782
448.369	1.8636	0.001782
449.035	1.863	0.001782
449.7	1.8624	0.00185625
450.365	1.8618	0.00185625
451.031	1.8611	0.00185625
451.696	1.8605	0.00185625
452.361	1.8599	0.00185625
453.027	1.8593	0.00185625
453.692	1.8587	0.00185625
454.357	1.8581	0.00185625
455.023	1.8575	0.00185625
455.688	1.8569	0.0019305
456.353	1.8563	0.0019305
457.019	1.8557	0.0019305
457.684	1.8551	0.0019305
458.349	1.8545	0.0019305
459.015	1.8539	0.0019305
459.68	1.8533	0.0019305
460.345	1.8528	0.0019305
461.011	1.8522	0.00200475
461.676	1.8516	0.00200475
462.341	1.851	0.00200475
463.007	1.8505	0.00200475
463.672	1.8499	0.00200475
464.337	1.8493	0.00200475
465.003	1.8488	0.00200475
465.668	1.8482	0.00200475
466.333	1.8477	0.002079
466.998	1.8471	0.002079
467.664	1.8466	0.002079
468.329	1.846	0.002079
468.994	1.8455	0.002079
469.66	1.8449	0.002079
470.325	1.8444	0.002079
470.99	1.8438	0.002079
471.656	1.8433	0.00215325
472.321	1.8427	0.00215325
472.986	1.8422	0.00215325
473.652	1.8417	0.00215325
474.317	1.8411	0.00215325
474.982	1.8406	0.00215325
475.648	1.8401	0.00215325
476.313	1.8395	0.00215325
476.978	1.839	0.0022275
477.644	1.8385	0.0022275
478.309	1.838	0.0022275
478.974	1.8375	0.0022275
479.64	1.8369	0.0022275
480.305	1.8364	0.0022275
480.97	1.8359	0.0022275
481.636	1.8354	0.00230175
482.301	1.8349	0.00230175
482.966	1.8344	0.00230175
483.632	1.8339	0.00230175
484.297	1.8334	0.00230175
484.962	1.8329	0.00230175
485.628	1.8324	0.00230175
486.293	1.8319	0.002376
486.958	1.8314	0.002376
487.624	1.8309	0.002376
488.289	1.8304	0.002376
488.954	1.8299	0.002376
489.62	1.8294	0.002376
490.285	1.8289	0.002376
490.95	1.8284	0.002376
491.616	1.8279	0.00245025
492.281	1.8274	0.00245025
492.946	1.8269	0.00245025
493.612	1.8265	0.00245025
494.277	1.826	0.00245025
494.942	1.8255	0.00245025
495.608	1.825	0.00245025
496.273	1.8245	0.0025245
496.938	1.8241	0.0025245
497.604	1.8236	0.0025245
498.269	1.8231	0.0025245
498.934	1.8226	0.0025245
499.6	1.8222	0.0025245
500.265	1.8217	0.00259875
500.93	1.8212	0.00259875
501.596	1.8208	0.00259875
502.261	1.8203	0.00259875
502.926	1.8198	0.00259875
503.592	1.8194	0.00259875
504.257	1.8189	0.00259875
504.922	1.8184	0.002673
505.588	1.818	0.002673
506.253	1.8175	0.002673
506.918	1.8171	0.002673
507.584	1.8166	0.002673
508.249	1.8161	0.002673
508.914	1.8157	0.002673
509.58	1.8152	0.00274725
510.245	1.8148	0.00274725
510.91	1.8143	0.00274725
511.576	1.8139	0.00274725
512.241	1.8134	0.00274725
512.906	1.813	0.00274725
513.572	1.8125	0.0028215
514.237	1.8121	0.0028215
514.902	1.8116	0.0028215
515.568	1.8112	0.0028215
516.233	1.8108	0.0028215
516.898	1.8103	0.0028215
517.564	1.8099	0.0028215
518.229	1.8094	0.00289575
518.894	1.809	0.00289575
519.56	1.8086	0.00289575
520.225	1.8081	0.00289575
520.89	1.8077	0.00289575
521.556	1.8072	0.00289575
522.221	1.8068	0.00297
522.886	1.8064	0.00297
523.552	1.8059	0.00297
524.217	1.8055	0.00297
524.882	1.8051	0.00297
525.548	1.8046	0.00297
526.213	1.8042	0.00304425
526.878	1.8038	0.00304425
527.544	1.8034	0.00304425
528.209	1.8029	0.00304425
528.874	1.8025	0.00304425
529.54	1.8021	0.00304425
530.205	1.8016	0.0031185
530.87	1.8012	0.0031185
531.536	1.8008	0.0031185
532.201	1.8004	0.0031185
532.866	1.8	0.0031185
533.532	1.7995	0.0031185
534.197	1.7991	0.00319275
534.862	1.7987	0.00319275
535.528	1.7983	0.00319275
536.193	1.7979	0.00319275
536.858	1.7974	0.00319275
537.524	1.797	0.00319275
538.189	1.7966	0.003267
538.854	1.7962	0.003267
539.52	1.7958	0.003267
540.185	1.7954	0.003267
540.85	1.7949	0.003267
541.516	1.7945	0.003267
542.181	1.7941	0.00334125
542.846	1.7937	0.00334125
543.512	1.7933	0.00334125
544.177	1.7929	0.00334125
544.842	1.7925	0.00334125
545.508	1.7921	0.00334125
546.173	1.7916	0.0034155
546.838	1.7912	0.0034155
547.504	1.7908	0.0034155
548.169	1.7904	0.0034155
548.834	1.79	0.0034155
549.5	1.7896	0.00348975
550.165	1.7892	0.00348975
550.83	1.7888	0.00348975
551.496	1.7884	0.00348975
552.161	1.788	0.00348975
552.826	1.7876	0.00348975
553.492	1.7872	0.003564
554.157	1.7868	0.003564
554.822	1.7864	0.003564
555.488	1.786	0.003564
556.153	1.7856	0.003564
556.818	1.7852	0.00363825
557.484	1.7848	0.00363825
558.149	1.7844	0.00363825
558.814	1.784	0.00363825
559.48	1.7836	0.00363825
560.145	1.7832	0.00363825
560.81	1.7828	0.0037125
561.476	1.7824	0.0037125
562.141	1.782	0.0037125
562.806	1.7816	0.0037125
563.472	1.7812	0.0037125
564.137	1.7808	0.00378675
564.802	1.7804	0.00378675
565.468	1.78	0.00378675
566.133	1.7796	0.00378675
566.798	1.7792	0.00378675
567.464	1.7788	0.003861
568.129	1.7785	0.003861
568.794	1.7781	0.003861
569.46	1.7777	0.003861
570.125	1.7773	0.003861
570.79	1.7769	0.00393525
571.456	1.7765	0.00393525
572.121	1.7761	0.00393525
572.786	1.7757	0.00393525
573.452	1.7753	0.00393525
574.117	1.7749	0.00393525
574.782	1.7746	0.0040095
575.448	1.7742	0.0040095
576.113	1.7738	0.0040095
576.778	1.7734	0.0040095
577.444	1.773	0.0040095
578.109	1.7726	0.00408375
578.774	1.7722	0.00408375
579.44	1.7718	0.00408375
580.105	1.7715	0.00408375
580.77	1.7711	0.00408375
581.436	1.7707	0.004158
582.101	1.7703	0.004158
582.766	1.7699	0.004158
583.432	1.7695	0.004158
584.097	1.7692	0.00423225
584.762	1.7688	0.00423225
585.428	1.7684	0.00423225
586.093	1.768	0.00423225
586.758	1.7676	0.00423225
587.424	1.7672	0.0043065
588.089	1.7669	0.0043065
588.754	1.7665	0.0043065
589.42	1.7661	0.0043065
590.085	1.7657	0.0043065
590.75	1.7653	0.00438075
591.416	1.765	0.00438075
592.081	1.7646	0.00438075
592.746	1.7642	0.00438075
593.412	1.7638	0.00438075
594.077	1.7634	0.004455
594.742	1.7631	0.004455
595.408	1.7627	0.004455
596.073	1.7623	0.004455
596.738	1.7619	0.004455
597.404	1.7615	0.00452925
598.069	1.7612	0.00452925
598.734	1.7608	0.00452925
599.4	1.7604	0.00452925
600.065	1.76	0.0046035
600.73	1.7597	0.0046035
601.396	1.7593	0.0046035
602.061	1.7589	0.0046035
602.726	1.7585	0.0046035
603.392	1.7581	0.00467775
604.057	1.7578	0.00467775
604.722	1.7574	0.00467775
605.388	1.757	0.00467775
606.053	1.7566	0.004752
606.718	1.7563	0.004752
607.384	1.7559	0.004752
608.049	1.7555	0.004752
608.714	1.7551	0.004752
609.38	1.7548	0.00482625
610.045	1.7544	0.00482625
610.71	1.754	0.00482625
611.376	1.7537	0.00482625
612.041	1.7533	0.0049005
612.706	1.7529	0.0049005
613.372	1.7525	0.0049005
614.037	1.7522	0.0049005
614.702	1.7518	0.0049005
615.368	1.7514	0.00497475
616.033	1.751	0.00497475
616.698	1.7507	0.00497475
617.364	1.7503	0.00497475
618.029	1.7499	0.005049
618.694	1.7495	0.005049
619.36	1.7492	0.005049
620.025	1.7488	0.005049
620.69	1.7484	0.00512325
621.356	1.7481	0.00512325
622.021	1.7477	0.00512325
622.686	1.7473	0.00512325
623.352	1.7469	0.0051975
624.017	1.7466	0.0051975
624.682	1.7462	0.0051975
625.348	1.7458	0.0051975
626.013	1.7455	0.0051975
626.678	1.7451	0.00527175
627.344	1.7447	0.00527175
628.009	1.7444	0.00527175
628.674	1.744	0.00527175
629.34	1.7436	0.005346
630.005	1.7432	0.005346
630.67	1.7429	0.005346
631.336	1.7425	0.005346
632.001	1.7421	0.00542025
632.666	1.7418	0.00542025
633.332	1.7414	0.00542025
633.997	1.741	0.00542025
634.662	1.7407	0.0054945
635.328	1.7403	0.0054945
635.993	1.7399	0.0054945
636.658	1.7395	0.0054945
637.324	1.7392	0.00556875
637.989	1.7388	0.00556875
638.654	1.7384	0.00556875
639.32	1.7381	0.00556875
639.985	1.7377	0.005643
640.65	1.7373	0.005643
641.316	1.737	0.005643
641.981	1.7366	0.005643
642.646	1.7362	0.00571725
643.312	1.7359	0.00571725
643.977	1.7355	0.00571725
644.642	1.7351	0.00571725
645.308	1.7348	0.0057915
645.973	1.7344	0.0057915
646.638	1.734	0.0057915
647.304	1.7337	0.0057915
647.969	1.7333	0.00586575
648.634	1.7329	0.00586575
649.3	1.7325	0.00586575
649.965	1.7322	0.00586575
650.63	1.7318	0.00594
651.296	1.7314	0.00594
651.961	1.7311	0.00594
652.626	1.7307	0.00601425
653.292	1.7303	0.00601425
653.957	1.73	0.00601425
654.622	1.7296	0.00601425
655.288	1.7292	0.0060885
655.953	1.7289	0.0060885
656.618	1.7285	0.0060885
657.284	1.7281	0.0060885
657.949	1.7278	0.00616275
658.614	1.7274	0.00616275
659.28	1.727	0.00616275
659.945	1.7267	0.00616275
660.61	1.7263	0.006237
661.276	1.7259	0.006237
661.941	1.7256	0.006237
662.606	1.7252	0.00631125
663.272	1.7248	0.00631125
663.937	1.7245	0.00631125
664.602	1.7241	0.00631125
665.268	1.7237	0.0063855
665.933	1.7234	0.0063855
666.598	1.723	0.0063855
667.264	1.7226	0.0063855
667.929	1.7223	0.00645975
668.594	1.7219	0.00645975
669.26	1.7215	0.00645975
669.925	1.7212	0.006534
670.59	1.7208	0.006534
671.256	1.7204	0.006534
671.921	1.72	0.006534
672.586	1.7197	0.00660825
673.252	1.7193	0.00660825
673.917	1.7189	0.00660825
674.582	1.7186	0.0066825
675.248	1.7182	0.0066825
675.913	1.7178	0.0066825
676.578	1.7175	0.0066825
677.244	1.7171	0.00675675
677.909	1.7167	0.00675675
678.574	1.7164	0.00675675
679.24	1.716	0.006831
679.905	1.7156	0.006831
680.57	1.7153	0.006831
681.236	1.7149	0.006831
681.901	1.7145	0.00690525
682.566	1.7142	0.00690525
683.232	1.7138	0.00690525
683.897	1.7134	0.0069795
684.562	1.7131	0.0069795
685.228	1.7127	0.0069795
685.893	1.7123	0.0069795
686.558	1.7119	0.00705375
687.224	1.7116	0.00705375
687.889	1.7112	0.00705375
688.554	1.7108	0.007128
689.22	1.7105	0.007128
689.885	1.7101	0.007128
690.55	1.7097	0.007128
691.216	1.7094	0.00720225
691.881	1.709	0.00720225
692.546	1.7086	0.00720225
693.212	1.7083	0.0072765
693.877	1.7079	0.0072765
694.542	1.7075	0.0072765
695.208	1.7072	0.00735075
695.873	1.7068	0.00735075
696.538	1.7064	0.00735075
697.204	1.706	0.007425
697.869	1.7057	0.007425
698.534	1.7053	0.007425
699.2	1.7049	0.007425
699.865	1.7046	0.00749925
700.53	1.7042	0.00749925
701.196	1.7038	0.00749925
701.861	1.7035	0.0075735
702.526	1.7031	0.0075735
703.192	1.7027	0.0075735
703.857	1.7023	0.00764775
704.522	1.702	0.00764775
705.188	1.7016	0.00764775
705.853	1.7012	0.007722
706.518	1.7009	0.007722
707.184	1.7005	0.007722
707.849	1.7001	0.00779625
708.514	1.6997	0.00779625
709.18	1.6994	0.00779625
709.845	1.699	0.00779625
710.51	1.6986	0.0078705
711.176	1.6983	0.0078705
711.841	1.6979	0.0078705
712.506	1.6975	0.00794475
713.172	1.6971	0.00794475
713.837	1.6968	0.00794475
714.502	1.6964	0.008019
715.168	1.696	0.008019
715.833	1.6957	0.008019
716.498	1.6953	0.00809325
717.164	1.6949	0.00809325
717.829	1.6945	0.00809325
718.494	1.6942	0.0081675
719.16	1.6938	0.0081675
719.825	1.6934	0.0081675
720.49	1.693	0.00824175
721.156	1.6927	0.00824175
721.821	1.6923	0.00824175
722.486	1.6919	0.008316
723.152	1.6916	0.008316
723.817	1.6912	0.008316
724.482	1.6908	0.00839025
725.148	1.6904	0.00839025
725.813	1.6901	0.00839025
726.478	1.6897	0.0084645
727.144	1.6893	0.0084645
727.809	1.6889	0.0084645
728.474	1.6886	0.00853875
729.14	1.6882	0.00853875
729.805	1.6878	0.00853875
730.47	1.6874	0.008613
731.136	1.6871	0.008613
731.801	1.6867	0.008613
732.466	1.6863	0.00868725
733.132	1.6859	0.00868725
733.797	1.6856	0.00868725
734.462	1.6852	0.0087615
735.128	1.6848	0.0087615
735.793	1.6844	0.0087615
736.458	1.6841	0.00883575
737.124	1.6837	0.00883575
737.789	1.6833	0.00883575
738.454	1.6829	0.00891
739.12	1.6825	0.00891
739.785	1.6822	0.00898425
740.45	1.6818	0.00898425
741.116	1.6814	0.00898425
741.781	1.681	0.0090585
742.446	1.6807	0.0090585
743.112	1.6803	0.0090585
743.777	1.6799	0.00913275
744.442	1.6795	0.00913275
745.108	1.6791	0.00913275
745.773	1.6788	0.009207
746.438	1.6784	0.009207
747.104	1.678	0.009207
747.769	1.6776	0.00928125
748.434	1.6773	0.00928125
749.1	1.6769	0.0093555
749.765	1.6765	0.0093555
750.43	1.6761	0.0093555
751.096	1.6757	0.00942975
751.761	1.6754	0.00942975
752.426	1.675	0.00942975
753.092	1.6746	0.009504
753.757	1.6742	0.009504
754.422	1.6738	0.009504
755.088	1.6735	0.00957825
755.753	1.6731	0.00957825
756.418	1.6727	0.0096525
757.084	1.6723	0.0096525
757.749	1.6719	0.0096525
758.414	1.6715	0.00972675
759.08	1.6712	0.00972675
759.745	1.6708	0.00972675
760.41	1.6704	0.009801
761.076	1.67	0.009801
761.741	1.6696	0.00987525
762.406	1.6693	0.00987525
763.072	1.6689	0.00987525
763.737	1.6685	0.0099495
764.402	1.6681	0.0099495
765.068	1.6677	0.0099495
765.733	1.6673	0.01002375
766.398	1.667	0.01002375
767.064	1.6666	0.010098
767.729	1.6662	0.010098
768.394	1.6658	0.010098
769.06	1.6654	0.01017225
769.725	1.665	0.01017225
770.39	1.6646	0.01017225
771.056	1.6643	0.0102465
771.721	1.6639	0.0102465
772.386	1.6635	0.01032075
773.052	1.6631	0.01032075
773.717	1.6627	0.01032075
774.382	1.6623	0.010395
775.048	1.6619	0.010395
775.713	1.6616	0.01046925
776.378	1.6612	0.01046925
777.044	1.6608	0.01046925
777.709	1.6604	0.0105435
778.374	1.66	0.0105435
779.04	1.6596	0.01061775
779.705	1.6592	0.01061775
780.37	1.6588	0.01061775
781.036	1.6585	0.010692
781.701	1.6581	0.010692
782.366	1.6577	0.01076625
783.032	1.6573	0.01076625
783.697	1.6569	0.01076625
784.362	1.6565	0.0108405
785.028	1.6561	0.0108405
785.693	1.6557	0.01091475
786.358	1.6553	0.01091475
787.024	1.655	0.01091475
787.689	1.6546	0.010989
788.354	1.6542	0.010989
789.02	1.6538	0.01106325
789.685	1.6534	0.01106325
790.35	1.653	0.01106325
791.016	1.6526	0.0111375
791.681	1.6522	0.0111375
792.346	1.6518	0.01121175
793.012	1.6514	0.01121175
793.677	1.651	0.011286
794.342	1.6507	0.011286
795.008	1.6503	0.011286
795.673	1.6499	0.01136025
796.338	1.6495	0.01136025
797.004	1.6491	0.0114345
797.669	1.6487	0.0114345
798.334	1.6483	0.0114345
798.999	1.6479	0.01150875
799.665	1.6475	0.01150875
800.33	1.6471	0.011583
800.995	1.6467	0.011583
801.661	1.6463	0.01165725
802.326	1.6459	0.01165725
802.991	1.6455	0.01165725
803.657	1.6451	0.0117315
804.322	1.6447	0.0117315
804.987	1.6443	0.01180575
805.653	1.644	0.01180575
806.318	1.6436	0.01188
806.983	1.6432	0.01188
807.649	1.6428	0.01188
808.314	1.6424	0.01195425
808.979	1.642	0.01195425
809.645	1.6416	0.0120285
810.31	1.6412	0.0120285
810.975	1.6408	0.01210275
811.641	1.6404	0.01210275
812.306	1.64	0.01210275
812.971	1.6396	0.012177
813.637	1.6392	0.012177
814.302	1.6388	0.01225125
814.967	1.6384	0.01225125
815.633	1.638	0.0123255
816.298	1.6376	0.0123255
816.963	1.6372	0.01239975
817.629	1.6368	0.01239975
818.294	1.6364	0.01239975
818.959	1.636	0.012474
819.625	1.6356	0.012474
820.29	1.6352	0.01254825
820.955	1.6348	0.01254825
821.621	1.6344	0.0126225
822.286	1.634	0.0126225
822.951	1.6336	0.01269675
823.617	1.6332	0.01269675
824.282	1.6328	0.012771
824.947	1.6324	0.012771
825.613	1.632	0.012771
826.278	1.6316	0.01284525
826.943	1.6312	0.01284525
827.609	1.6307	0.0129195
828.274	1.6303	0.0129195
828.939	1.6299	0.01299375
829.605	1.6295	0.01299375
830.27	1.6291	0.013068
830.935	1.6287	0.013068
831.601	1.6283	0.01314225
832.266	1.6279	0.01314225
832.931	1.6275	0.0132165
833.597	1.6271	0.0132165
834.262	1.6267	0.0132165
834.927	1.6263	0.01329075
835.593	1.6259	0.01329075
836.258	1.6255	0.013365
836.923	1.6251	0.013365
837.589	1.6247	0.01343925
838.254	1.6242	0.01343925
838.919	1.6238	0.0135135
839.585	1.6234	0.0135135
840.25	1.623	0.01358775
840.915	1.6226	0.01358775
841.581	1.6222	0.013662
842.246	1.6218	0.013662
842.911	1.6214	0.01373625
843.577	1.621	0.01373625
844.242	1.6206	0.0138105
844.907	1.6202	0.0138105
845.573	1.6197	0.01388475
846.238	1.6193	0.01388475
846.903	1.6189	0.013959
847.569	1.6185	0.013959
848.234	1.6181	0.01403325
848.899	1.6177	0.01403325
849.565	1.6173	0.0141075
850.23	1.6169	0.0141075
850.895	1.6164	0.01418175
851.561	1.616	0.01418175
852.226	1.6156	0.014256
852.891	1.6152	0.014256
853.557	1.6148	0.01433025
854.222	1.6144	0.01433025
854.887	1.614	0.0144045
855.553	1.6135	0.0144045
856.218	1.6131	0.01447875
856.883	1.6127	0.01447875
857.549	1.6123	0.014553
858.214	1.6119	0.014553
858.879	1.6115	0.01462725
859.545	1.611	0.01462725
860.21	1.6106	0.0147015
860.875	1.6102	0.0147015
861.541	1.6098	0.01477575
862.206	1.6094	0.01477575
862.871	1.609	0.01485
863.537	1.6085	0.01485
864.202	1.6081	0.01492425
864.867	1.6077	0.01492425
865.533	1.6073	0.0149985
866.198	1.6069	0.0149985
866.863	1.6064	0.01507275
867.529	1.606	0.01507275
868.194	1.6056	0.015147
868.859	1.6052	0.015147
869.525	1.6048	0.01522125
870.19	1.6043	0.01522125
870.855	1.6039	0.0152955
871.521	1.6035	0.0152955
872.186	1.6031	0.01536975
872.851	1.6026	0.01536975
873.517	1.6022	0.015444
874.182	1.6018	0.015444
874.847	1.6014	0.01551825
875.513	1.601	0.01551825
876.178	1.6005	0.0155925
876.843	1.6001	0.01566675
877.509	1.5997	0.01566675
878.174	1.5993	0.015741
878.839	1.5988	0.015741
879.505	1.5984	0.01581525
880.17	1.598	0.01581525
880.835	1.5976	0.0158895
881.501	1.5971	0.0158895
882.166	1.5967	0.01596375
882.831	1.5963	0.01596375
883.497	1.5958	0.016038
884.162	1.5954	0.016038
884.827	1.595	0.01611225
885.493	1.5946	0.0161865
886.158	1.5941	0.0161865
886.823	1.5937	0.01626075
887.489	1.5933	0.01626075
888.154	1.5928	0.016335
888.819	1.5924	0.016335
889.485	1.592	0.01640925
890.15	1.5916	0.01640925
890.815	1.5911	0.0164835
891.481	1.5907	0.01655775
892.146	1.5903	0.01655775
892.811	1.5898	0.016632
893.477	1.5894	0.016632
894.142	1.589	0.01670625
894.807	1.5885	0.01670625
895.473	1.5881	0.0167805
896.138	1.5877	0.0167805
896.803	1.5872	0.01685475
897.469	1.5868	0.016929
898.134	1.5864	0.016929
898.799	1.5859	0.01700325
899.465	1.5855	0.01700325
900.13	1.5851	0.0170775
900.795	1.5846	0.0170775
901.461	1.5842	0.01715175
902.126	1.5838	0.017226
902.791	1.5833	0.017226
903.457	1.5829	0.01730025
904.122	1.5825	0.01730025
904.787	1.582	0.0173745
905.453	1.5816	0.0173745
906.118	1.5811	0.01744875
906.783	1.5807	0.017523
907.449	1.5803	0.017523
908.114	1.5798	0.01759725
908.779	1.5794	0.01759725
909.445	1.5789	0.0176715
910.11	1.5785	0.01774575
910.775	1.5781	0.01774575
911.441	1.5776	0.01782
912.106	1.5772	0.01782
912.771	1.5767	0.01789425
913.437	1.5763	0.01789425
914.102	1.5759	0.0179685
914.767	1.5754	0.01804275
915.433	1.575	0.01804275
916.098	1.5745	0.018117
916.763	1.5741	0.018117
917.429	1.5736	0.01819125
918.094	1.5732	0.0182655
918.759	1.5728	0.0182655
919.425	1.5723	0.01833975
920.09	1.5719	0.01833975
920.755	1.5714	0.018414
921.421	1.571	0.01848825
922.086	1.5705	0.01848825
922.751	1.5701	0.0185625
923.417	1.5696	0.01863675
924.082	1.5692	0.01863675
924.747	1.5687	0.018711
925.413	1.5683	0.018711
926.078	1.5679	0.01878525
926.743	1.5674	0.0188595
927.409	1.567	0.0188595
928.074	1.5665	0.01893375
928.739	1.5661	0.01893375
929.405	1.5656	0.019008
930.07	1.5652	0.01908225
930.735	1.5647	0.01908225
931.401	1.5643	0.0191565
932.066	1.5638	0.01923075
932.731	1.5634	0.01923075
933.397	1.5629	0.019305
934.062	1.5625	0.019305
934.727	1.562	0.01937925
935.393	1.5616	0.0194535
936.058	1.5611	0.0194535
936.723	1.5606	0.01952775
937.389	1.5602	0.019602
938.054	1.5597	0.019602
938.719	1.5593	0.01967625
939.385	1.5588	0.01967625
940.05	1.5584	0.0197505
940.715	1.5579	0.01982475
941.381	1.5575	0.01982475
942.046	1.557	0.019899
942.711	1.5566	0.01997325
943.377	1.5561	0.01997325
944.042	1.5556	0.0200475
944.707	1.5552	0.02012175
945.373	1.5547	0.02012175
946.038	1.5543	0.020196
946.703	1.5538	0.02027025
947.369	1.5534	0.02027025
948.034	1.5529	0.0203445
948.699	1.5524	0.02041875
949.365	1.552	0.02041875
950.03	1.5515	0.020493
950.695	1.5511	0.02056725
951.361	1.5506	0.02056725
952.026	1.5501	0.0206415
952.691	1.5497	0.02071575
953.357	1.5492	0.02071575
954.022	1.5488	0.02079
954.687	1.5483	0.02086425
955.353	1.5478	0.02086425
956.018	1.5474	0.0209385
956.683	1.5469	0.02101275
957.349	1.5464	0.02101275
958.014	1.546	0.021087
958.679	1.5455	0.02116125
959.345	1.545	0.02116125
960.01	1.5446	0.0212355
960.675	1.5441	0.02130975
961.341	1.5436	0.02130975
962.006	1.5432	0.021384
962.671	1.5427	0.02145825
963.337	1.5422	0.02145825
964.002	1.5418	0.0215325
964.667	1.5413	0.02160675
965.333	1.5408	0.02160675
965.998	1.5404	0.021681
966.663	1.5399	0.02175525
967.329	1.5394	0.02175525
967.994	1.539	0.0218295
968.659	1.5385	0.02190375
969.325	1.538	0.02190375
969.99	1.5376	0.021978
970.655	1.5371	0.02205225
971.321	1.5366	0.0221265
971.986	1.5361	0.0221265
972.651	1.5357	0.02220075
973.317	1.5352	0.022275
973.982	1.5347	0.022275
974.647	1.5343	0.02234925
975.313	1.5338	0.0224235
975.978	1.5333	0.02249775
976.643	1.5328	0.02249775
977.309	1.5324	0.022572
977.974	1.5319	0.02264625
978.639	1.5314	0.02264625
979.305	1.5309	0.0227205
979.97	1.5305	0.02279475
980.635	1.53	0.022869
981.301	1.5295	0.022869
981.966	1.529	0.02294325
982.631	1.5285	0.0230175
983.297	1.5281	0.0230175
983.962	1.5276	0.02309175
984.627	1.5271	0.023166
985.293	1.5266	0.02324025
985.958	1.5261	0.02324025
986.623	1.5257	0.0233145
987.289	1.5252	0.02338875
987.954	1.5247	0.02338875
988.619	1.5242	0.023463
989.285	1.5237	0.02353725
989.95	1.5233	0.0236115
990.615	1.5228	0.0236115
991.281	1.5223	0.02368575
991.946	1.5218	0.02376
992.611	1.5213	0.02383425
993.277	1.5208	0.02383425
993.942	1.5204	0.0239085
994.607	1.5199	0.02398275
995.273	1.5194	0.024057
995.938	1.5189	0.024057
996.603	1.5184	0.02413125
997.269	1.5179	0.0242055
997.934	1.5175	0.02427975
998.599	1.517	0.02427975
999.265	1.5165	0.024354
999.93	1.516	0.02442825
1000.595	1.5155	0.0245025
1001.261	1.515	0.0245025
1001.926	1.5145	0.02457675
1002.591	1.514	0.024651
1003.257	1.5135	0.02472525
1003.922	1.5131	0.02472525
1004.587	1.5126	0.0247995
1005.253	1.5121	0.02487375
1005.918	1.5116	0.024948
1006.583	1.5111	0.02502225
1007.249	1.5106	0.02502225
1007.914	1.5101	0.0250965
1008.579	1.5096	0.02517075
1009.245	1.5091	0.025245
1009.91	1.5086	0.025245
1010.575	1.5081	0.02531925
1011.241	1.5076	0.0253935
1011.906	1.5071	0.02546775
1012.571	1.5067	0.025542
1013.237	1.5062	0.025542
1013.902	1.5057	0.02561625
1014.567	1.5052	0.0256905
1015.233	1.5047	0.02576475
1015.898	1.5042	0.025839
1016.563	1.5037	0.025839
1017.229	1.5032	0.02591325
1017.894	1.5027	0.0259875
1018.559	1.5022	0.02606175
1019.225	1.5017	0.026136
1019.89	1.5012	0.026136
1020.555	1.5007	0.02621025
1021.221	1.5002	0.0262845
1021.886	1.4997	0.02635875
1022.551	1.4992	0.026433
1023.217	1.4987	0.026433
1023.882	1.4982	0.02650725
1024.547	1.4977	0.0265815
1025.213	1.4972	0.02665575
1025.878	1.4967	0.02673
1026.543	1.4962	0.02673
1027.209	1.4957	0.02680425
1027.874	1.4952	0.0268785
1028.539	1.4947	0.02695275
1029.205	1.4941	0.027027
1029.87	1.4936	0.02710125
1030.535	1.4931	0.02710125
1031.201	1.4926	0.0271755
1031.866	1.4921	0.02724975
1032.531	1.4916	0.027324
1033.197	1.4911	0.02739825
1033.862	1.4906	0.0274725
1034.527	1.4901	0.0274725
1035.193	1.4896	0.02754675
1035.858	1.4891	0.027621
1036.523	1.4886	0.02769525
1037.189	1.4881	0.0277695
1037.854	1.4875	0.02784375
1038.519	1.487	0.02784375
1039.185	1.4865	0.027918
1039.85	1.486	0.02799225
1040.515	1.4855	0.0280665
1041.181	1.485	0.02814075
1041.846	1.4845	0.028215
1042.511	1.484	0.02828925
1043.177	1.4834	0.02828925
1043.842	1.4829	0.0283635
1044.507	1.4824	0.02843775
1045.173	1.4819	0.028512
1045.838	1.4814	0.02858625
1046.503	1.4809	0.0286605
1047.169	1.4804	0.02873475
1047.834	1.4798	0.02873475
1048.499	1.4793	0.028809
1049.165	1.4788	0.02888325
1049.83	1.4783	0.0289575
1050.495	1.4778	0.02903175
1051.161	1.4772	0.029106
1051.826	1.4767	0.02918025
1052.491	1.4762	0.0292545
1053.157	1.4757	0.0292545
1053.822	1.4752	0.02932875
1054.487	1.4746	0.029403
1055.153	1.4741	0.02947725
1055.818	1.4736	0.0295515
1056.483	1.4731	0.02962575
1057.149	1.4726	0.0297
1057.814	1.472	0.02977425
1058.479	1.4715	0.0298485
1059.145	1.471	0.0298485
1059.81	1.4705	0.02992275
1060.475	1.4699	0.029997
1061.141	1.4694	0.03007125
1061.806	1.4689	0.0301455
1062.471	1.4684	0.03021975
1063.137	1.4678	0.030294
1063.802	1.4673	0.03036825
1064.467	1.4668	0.0304425
1065.133	1.4662	0.03051675
1065.798	1.4657	0.03051675
1066.463	1.4652	0.030591
1067.129	1.4647	0.03066525
1067.794	1.4641	0.0307395
1068.459	1.4636	0.03081375
1069.125	1.4631	0.030888
1069.79	1.4625	0.03096225
1070.455	1.462	0.0310365
1071.121	1.4615	0.03111075
1071.786	1.4609	0.031185
1072.451	1.4604	0.03125925
1073.117	1.4599	0.0313335
1073.782	1.4593	0.03140775
1074.447	1.4588	0.03140775
1075.113	1.4583	0.031482
1075.778	1.4577	0.03155625
1076.443	1.4572	0.0316305
1077.109	1.4567	0.03170475
1077.774	1.4561	0.031779
1078.439	1.4556	0.03185325
1079.105	1.4551	0.0319275
1079.77	1.4545	0.03200175
1080.435	1.454	0.032076
1081.101	1.4534	0.03215025
1081.766	1.4529	0.0322245
1082.431	1.4524	0.03229875
1083.097	1.4518	0.032373
1083.762	1.4513	0.03244725
1084.427	1.4507	0.0325215
1085.093	1.4502	0.03259575
1085.758	1.4497	0.03267
1086.423	1.4491	0.03274425
1087.089	1.4486	0.0328185
1087.754	1.448	0.03289275
1088.419	1.4475	0.032967
1089.085	1.4469	0.03304125
1089.75	1.4464	0.0331155
1090.415	1.4459	0.0331155
1091.081	1.4453	0.03318975
1091.746	1.4448	0.033264
1092.411	1.4442	0.03333825
1093.077	1.4437	0.0334125
1093.742	1.4431	0.03348675
1094.407	1.4426	0.033561
1095.073	1.442	0.03363525
1095.738	1.4415	0.0337095
1096.403	1.4409	0.03378375
1097.069	1.4404	0.033858
1097.734	1.4398	0.03393225
1098.399	1.4393	0.0340065
1099.065	1.4387	0.03408075
1099.73	1.4382	0.034155
1100.395	1.4376	0.03422925
1101.061	1.4371	0.0343035
1101.726	1.4365	0.03437775
1102.391	1.436	0.034452
1103.057	1.4354	0.03452625
1103.722	1.4349	0.0346005
1104.387	1.4343	0.03467475
1105.053	1.4337	0.03482325
1105.718	1.4332	0.0348975
1106.383	1.4326	0.03497175
1107.049	1.4321	0.035046
1107.714	1.4315	0.03512025
1108.379	1.431	0.0351945
1109.045	1.4304	0.03526875
1109.71	1.4298	0.035343
1110.375	1.4293	0.03541725
1111.041	1.4287	0.0354915
1111.706	1.4282	0.03556575
1112.371	1.4276	0.03564
1113.037	1.427	0.03571425
1113.702	1.4265	0.0357885
1114.367	1.4259	0.03586275
1115.033	1.4254	0.035937
1115.698	1.4248	0.03601125
1116.363	1.4242	0.0360855
1117.029	1.4237	0.03615975
1117.694	1.4231	0.036234
1118.359	1.4225	0.03630825
1119.025	1.422	0.0363825
1119.69	1.4214	0.03645675
1120.355	1.4208	0.03660525
1121.021	1.4203	0.0366795
1121.686	1.4197	0.03675375
1122.351	1.4191	0.036828
1123.017	1.4186	0.03690225
1123.682	1.418	0.0369765
1124.347	1.4174	0.03705075
1125.013	1.4169	0.037125
1125.678	1.4163	0.03719925
1126.343	1.4157	0.0372735
1127.009	1.4151	0.03734775
1127.674	1.4146	0.037422
1128.339	1.414	0.03749625
1129.005	1.4134	0.03764475
1129.67	1.4129	0.037719
1130.335	1.4123	0.03779325
1131.001	1.4117	0.0378675
1131.666	1.4111	0.03794175
1132.331	1.4106	0.038016
1132.996	1.41	0.03809025
1133.662	1.4094	0.0381645
1134.327	1.4088	0.03823875
1134.992	1.4083	0.03838725
1135.658	1.4077	0.0384615
1136.323	1.4071	0.03853575
1136.988	1.4065	0.03861
1137.654	1.4059	0.03868425
1138.319	1.4054	0.0387585
1138.984	1.4048	0.03883275
1139.65	1.4042	0.038907
1140.315	1.4036	0.03898125
1140.98	1.403	0.03912975
1141.646	1.4025	0.039204
1142.311	1.4019	0.03927825
1142.976	1.4013	0.0393525
1143.642	1.4007	0.03942675
1144.307	1.4001	0.039501
1144.972	1.3995	0.03957525
1145.638	1.399	0.03972375
1146.303	1.3984	0.039798
1146.968	1.3978	0.03987225
1147.634	1.3972	0.0399465
1148.299	1.3966	0.04002075
1148.964	1.396	0.040095
1149.63	1.3954	0.0402435
1150.295	1.3948	0.04031775
1150.96	1.3943	0.040392
1151.626	1.3937	0.04046625
1152.291	1.3931	0.0405405
1152.956	1.3925	0.04061475
1153.622	1.3919	0.04076325
1154.287	1.3913	0.0408375
1154.952	1.3907	0.04091175
1155.618	1.3901	0.040986
1156.283	1.3895	0.04106025
1156.948	1.3889	0.0411345
1157.614	1.3883	0.041283
1158.279	1.3877	0.04135725
1158.944	1.3871	0.0414315
1159.61	1.3865	0.04150575
1160.275	1.386	0.04158
1160.94	1.3854	0.0417285
1161.606	1.3848	0.04180275
1162.271	1.3842	0.041877
1162.936	1.3836	0.04195125
1163.602	1.383	0.0420255
1164.267	1.3824	0.042174
1164.932	1.3818	0.04224825
1165.598	1.3812	0.0423225
1166.263	1.3806	0.04239675
1166.928	1.38	0.042471
1167.594	1.3794	0.0426195
1168.259	1.3788	0.04269375
1168.924	1.3781	0.042768
1169.59	1.3775	0.04284225
1170.255	1.3769	0.04299075
1170.92	1.3763	0.043065
1171.586	1.3757	0.04313925
1172.251	1.3751	0.0432135
1172.916	1.3745	0.043362
1173.582	1.3739	0.04343625
1174.247	1.3733	0.0435105
1174.912	1.3727	0.04358475
1175.578	1.3721	0.04373325
1176.243	1.3715	0.0438075
1176.908	1.3709	0.04388175
1177.574	1.3703	0.043956
1178.239	1.3696	0.0441045
1178.904	1.369	0.04417875
1179.57	1.3684	0.044253
1180.235	1.3678	0.04432725
1180.9	1.3672	0.04447575
1181.566	1.3666	0.04455
1182.231	1.366	0.04462425
1182.896	1.3654	0.04477275
1183.562	1.3647	0.044847
1184.227	1.3641	0.04492125
1184.892	1.3635	0.0449955
1185.558	1.3629	0.045144
1186.223	1.3623	0.04521825
1186.888	1.3617	0.0452925
1187.554	1.361	0.045441
1188.219	1.3604	0.04551525
1188.884	1.3598	0.0455895
1189.55	1.3592	0.04566375
1190.215	1.3586	0.04581225
1190.88	1.3579	0.0458865
1191.546	1.3573	0.04596075
1192.211	1.3567	0.04610925
1192.876	1.3561	0.0461835
1193.542	1.3554	0.04625775
1194.207	1.3548	0.04640625
1194.872	1.3542	0.0464805
1195.538	1.3536	0.04655475
1196.203	1.3529	0.04670325
1196.868	1.3523	0.0467775
1197.534	1.3517	0.04685175
1198.199	1.3511	0.04700025
1198.864	1.3504	0.0470745
1199.53	1.3498	0.04714875
1200.195	1.3492	0.04729725
1200.86	1.3486	0.0473715
1201.526	1.3479	0.04744575
1202.191	1.3473	0.04759425
1202.856	1.3467	0.0476685
1203.522	1.346	0.04774275
1204.187	1.3454	0.04789125
1204.852	1.3448	0.0479655
1205.518	1.3441	0.048114
1206.183	1.3435	0.04818825
1206.848	1.3429	0.0482625
1207.514	1.3422	0.048411
1208.179	1.3416	0.04848525
1208.844	1.341	0.0485595
1209.51	1.3403	0.048708
1210.175	1.3397	0.04878225
1210.84	1.339	0.04893075
1211.506	1.3384	0.049005
1212.171	1.3378	0.04907925
1212.836	1.3371	0.04922775
1213.502	1.3365	0.049302
1214.167	1.3358	0.0494505
1214.832	1.3352	0.04952475
1215.498	1.3346	0.049599
1216.163	1.3339	0.0497475
1216.828	1.3333	0.04982175
1217.494	1.3326	0.04997025
1218.159	1.332	0.0500445
1218.824	1.3313	0.05011875
1219.49	1.3307	0.05026725
1220.155	1.33	0.0503415
1220.82	1.3294	0.05049
1221.486	1.3288	0.05056425
1222.151	1.3281	0.05071275
1222.816	1.3275	0.050787
1223.482	1.3268	0.05086125
1224.147	1.3262	0.05100975
1224.812	1.3255	0.051084
1225.478	1.3249	0.0512325
1226.143	1.3242	0.05130675
1226.808	1.3236	0.05145525
1227.474	1.3229	0.0515295
1228.139	1.3222	0.051678
1228.804	1.3216	0.05175225
1229.47	1.3209	0.05190075
1230.135	1.3203	0.051975
1230.8	1.3196	0.0521235
1231.466	1.319	0.05219775
1232.131	1.3183	0.052272
1232.796	1.3177	0.0524205
1233.462	1.317	0.05249475
1234.127	1.3163	0.05264325
1234.792	1.3157	0.0527175
1235.458	1.315	0.052866
1236.123	1.3144	0.05294025
1236.788	1.3137	0.05308875
1237.454	1.313	0.053163
1238.119	1.3124	0.0533115
1238.784	1.3117	0.05338575
1239.45	1.311	0.05353425
1240.115	1.3104	0.0536085
1240.78	1.3097	0.053757
1241.446	1.3091	0.0539055
1242.111	1.3084	0.05397975
1242.776	1.3077	0.05412825
1243.442	1.3071	0.0542025
1244.107	1.3064	0.054351
1244.772	1.3057	0.05442525
1245.438	1.305	0.05457375
1246.103	1.3044	0.054648
1246.768	1.3037	0.0547965
1247.434	1.303	0.05487075
1248.099	1.3024	0.05501925
1248.764	1.3017	0.0550935
1249.43	1.301	0.055242
1250.095	1.3003	0.0553905
1250.76	1.2997	0.05546475
1251.426	1.299	0.05561325
1252.091	1.2983	0.0556875
1252.756	1.2976	0.055836
1253.422	1.297	0.05591025
1254.087	1.2963	0.05605875
1254.752	1.2956	0.05620725
1255.418	1.2949	0.0562815
1256.083	1.2943	0.05643
1256.748	1.2936	0.05650425
1257.414	1.2929	0.05665275
1258.079	1.2922	0.05680125
1258.744	1.2915	0.0568755
1259.41	1.2909	0.057024
1260.075	1.2902	0.05709825
1260.74	1.2895	0.05724675
1261.406	1.2888	0.05739525
1262.071	1.2881	0.0574695
1262.736	1.2874	0.057618
1263.402	1.2867	0.0577665
1264.067	1.2861	0.05784075
1264.732	1.2854	0.05798925
1265.398	1.2847	0.05813775
1266.063	1.284	0.058212
1266.728	1.2833	0.0583605
1267.394	1.2826	0.05843475
1268.059	1.2819	0.05858325
1268.724	1.2812	0.05873175
1269.39	1.2805	0.058806
1270.055	1.2799	0.0589545
1270.72	1.2792	0.059103
1271.386	1.2785	0.05917725
1272.051	1.2778	0.05932575
1272.716	1.2771	0.05947425
1273.382	1.2764	0.0595485
1274.047	1.2757	0.059697
1274.712	1.275	0.0598455
1275.378	1.2743	0.059994
1276.043	1.2736	0.06006825
1276.708	1.2729	0.06021675
1277.374	1.2722	0.06036525
1278.039	1.2715	0.0604395
1278.704	1.2708	0.060588
1279.37	1.2701	0.0607365
1280.035	1.2694	0.06081075
1280.7	1.2687	0.06095925
1281.366	1.268	0.06110775
1282.031	1.2673	0.06125625
1282.696	1.2666	0.0613305
1283.362	1.2659	0.061479
1284.027	1.2652	0.0616275
1284.692	1.2645	0.061776
1285.358	1.2637	0.06185025
1286.023	1.263	0.06199875
1286.688	1.2623	0.06214725
1287.354	1.2616	0.06229575
1288.019	1.2609	0.06237
1288.684	1.2602	0.0625185
1289.35	1.2595	0.062667
1290.015	1.2588	0.0628155
1290.68	1.2581	0.06288975
1291.346	1.2574	0.06303825
1292.011	1.2566	0.06318675
1292.676	1.2559	0.06333525
1293.342	1.2552	0.06348375
1294.007	1.2545	0.063558
1294.672	1.2538	0.0637065
1295.338	1.2531	0.063855
1296.003	1.2523	0.0640035
1296.668	1.2516	0.064152
1297.334	1.2509	0.06422625
1297.999	1.2502	0.06437475
1298.664	1.2495	0.06452325
1299.33	1.2487	0.06467175
1299.995	1.248	0.06482025
1300.66	1.2473	0.06496875
1301.326	1.2466	0.065043
1301.991	1.2458	0.0651915
1302.656	1.2451	0.06534
1303.322	1.2444	0.0654885
1303.987	1.2437	0.065637
1304.652	1.2429	0.0657855
1305.318	1.2422	0.065934
1305.983	1.2415	0.06600825
1306.648	1.2408	0.06615675
1307.314	1.24	0.06630525
1307.979	1.2393	0.06645375
1308.644	1.2386	0.06660225
1309.31	1.2378	0.06675075
1309.975	1.2371	0.06689925
1310.64	1.2364	0.06704775
1311.306	1.2356	0.067122
1311.971	1.2349	0.0672705
1312.636	1.2342	0.067419
1313.302	1.2334	0.0675675
1313.967	1.2327	0.067716
1314.632	1.2319	0.0678645
1315.298	1.2312	0.068013
1315.963	1.2305	0.0681615
1316.628	1.2297	0.06831
1317.294	1.229	0.0684585
1317.959	1.2282	0.068607
1318.624	1.2275	0.0687555
1319.29	1.2268	0.068904
1319.955	1.226	0.0690525
1320.62	1.2253	0.06912675
1321.286	1.2245	0.06927525
1321.951	1.2238	0.06942375
1322.616	1.223	0.06957225
1323.282	1.2223	0.06972075
1323.947	1.2215	0.06986925
1324.612	1.2208	0.07001775
1325.278	1.22	0.07016625
1325.943	1.2193	0.07031475
1326.608	1.2185	0.07046325
1327.274	1.2178	0.07061175
1327.939	1.217	0.07076025
1328.604	1.2163	0.07090875
1329.27	1.2155	0.07105725
1329.935	1.2148	0.07120575
1330.6	1.214	0.07135425
1331.266	1.2133	0.07150275
1331.931	1.2125	0.07165125
1332.596	1.2118	0.07179975
1333.262	1.211	0.07194825
1333.927	1.2102	0.072171
1334.592	1.2095	0.0723195
1335.258	1.2087	0.072468
1335.923	1.208	0.0726165
1336.588	1.2072	0.072765
1337.254	1.2064	0.0729135
1337.919	1.2057	0.073062
1338.584	1.2049	0.0732105
1339.25	1.2041	0.073359
1339.915	1.2034	0.0735075
1340.58	1.2026	0.073656
1341.246	1.2018	0.0738045
1341.911	1.2011	0.073953
1342.576	1.2003	0.07417575
1343.242	1.1995	0.07432425
1343.907	1.1988	0.07447275
1344.572	1.198	0.07462125
1345.238	1.1972	0.07476975
1345.903	1.1965	0.07491825
1346.568	1.1957	0.07506675
1347.234	1.1949	0.07521525
1347.899	1.1941	0.075438
1348.564	1.1934	0.0755865
1349.23	1.1926	0.075735
1349.895	1.1918	0.0758835
1350.56	1.191	0.076032
1351.226	1.1902	0.0761805
1351.891	1.1895	0.07640325
1352.556	1.1887	0.07655175
1353.222	1.1879	0.07670025
1353.887	1.1871	0.07684875
1354.552	1.1863	0.07699725
1355.218	1.1856	0.07714575
1355.883	1.1848	0.0773685
1356.548	1.184	0.077517
1357.214	1.1832	0.0776655
1357.879	1.1824	0.077814
1358.544	1.1816	0.07803675
1359.21	1.1808	0.07818525
1359.875	1.1801	0.07833375
1360.54	1.1793	0.07848225
1361.206	1.1785	0.078705
1361.871	1.1777	0.0788535
1362.536	1.1769	0.079002
1363.202	1.1761	0.0791505
1363.867	1.1753	0.07937325
1364.532	1.1745	0.07952175
1365.198	1.1737	0.07967025
1365.863	1.1729	0.07981875
1366.528	1.1721	0.0800415
1367.194	1.1713	0.08019
1367.859	1.1705	0.0803385
1368.524	1.1697	0.08056125
1369.19	1.1689	0.08070975
1369.855	1.1681	0.08085825
1370.52	1.1673	0.08100675
1371.186	1.1665	0.0812295
1371.851	1.1657	0.081378
1372.516	1.1649	0.0815265
1373.182	1.1641	0.08174925
1373.847	1.1633	0.08189775
1374.512	1.1625	0.0821205
1375.178	1.1617	0.082269
1375.843	1.1609	0.0824175
1376.508	1.1601	0.08264025
1377.174	1.1593	0.08278875
1377.839	1.1585	0.08293725
1378.504	1.1577	0.08316
1379.17	1.1568	0.0833085
1379.835	1.156	0.08353125
1380.5	1.1552	0.08367975
1381.166	1.1544	0.08382825
1381.831	1.1536	0.084051
1382.496	1.1528	0.0841995
1383.162	1.152	0.08442225
1383.827	1.1511	0.08457075
1384.492	1.1503	0.08471925
1385.158	1.1495	0.084942
1385.823	1.1487	0.0850905
1386.488	1.1479	0.08531325
1387.154	1.147	0.08546175
1387.819	1.1462	0.0856845
1388.484	1.1454	0.085833
1389.15	1.1446	0.08605575
1389.815	1.1437	0.08620425
1390.48	1.1429	0.086427
1391.146	1.1421	0.0865755
1391.811	1.1413	0.08679825
1392.476	1.1404	0.08694675
1393.142	1.1396	0.0871695
1393.807	1.1388	0.087318
1394.472	1.1379	0.08754075
1395.138	1.1371	0.08768925
1395.803	1.1363	0.087912
1396.468	1.1355	0.0880605
1397.134	1.1346	0.08828325
1397.799	1.1338	0.08843175
1398.464	1.1329	0.0886545
1399.13	1.1321	0.08887725
1399.795	1.1313	0.08902575
1400.46	1.1304	0.0892485
1401.126	1.1296	0.089397
1401.791	1.1288	0.08961975
1402.456	1.1279	0.0898425
1403.122	1.1271	0.089991
1403.787	1.1262	0.09021375
1404.452	1.1254	0.09036225
1405.118	1.1245	0.090585
1405.783	1.1237	0.09080775
1406.448	1.1228	0.09095625
1407.114	1.122	0.091179
1407.779	1.1212	0.09140175
1408.444	1.1203	0.09155025
1409.11	1.1195	0.091773
1409.775	1.1186	0.09199575
1410.44	1.1178	0.09214425
1411.106	1.1169	0.092367
1411.771	1.116	0.09258975
1412.436	1.1152	0.09273825
1413.102	1.1143	0.092961
1413.767	1.1135	0.09318375
1414.432	1.1126	0.09333225
1415.098	1.1118	0.093555
1415.763	1.1109	0.09377775
1416.428	1.1101	0.0940005
1417.094	1.1092	0.094149
1417.759	1.1083	0.09437175
1418.424	1.1075	0.0945945
1419.09	1.1066	0.09481725
1419.755	1.1057	0.09496575
1420.42	1.1049	0.0951885
1421.086	1.104	0.09541125
1421.751	1.1031	0.095634
1422.416	1.1023	0.09585675
1423.082	1.1014	0.09600525
1423.747	1.1005	0.096228
1424.412	1.0997	0.09645075
1425.078	1.0988	0.0966735
1425.743	1.0979	0.09689625
1426.408	1.0971	0.097119
1427.074	1.0962	0.0972675
1427.739	1.0953	0.09749025
1428.404	1.0944	0.097713
1429.07	1.0936	0.09793575
1429.735	1.0927	0.0981585
1430.4	1.0918	0.09838125
1431.066	1.0909	0.098604
1431.731	1.09	0.09882675
1432.396	1.0892	0.0990495
1433.062	1.0883	0.099198
1433.727	1.0874	0.09942075
1434.392	1.0865	0.0996435
1435.058	1.0856	0.09986625
1435.723	1.0847	0.100089
1436.388	1.0839	0.10031175
1437.054	1.083	0.1005345
1437.719	1.0821	0.10075725
1438.384	1.0812	0.10098
1439.05	1.0803	0.10120275
1439.715	1.0794	0.1014255
1440.38	1.0785	0.10164825
1441.046	1.0776	0.101871
1441.711	1.0767	0.10209375
1442.376	1.0758	0.1023165
1443.042	1.0749	0.10253925
1443.707	1.074	0.102762
1444.372	1.0731	0.10298475
1445.038	1.0722	0.1032075
1445.703	1.0713	0.10343025
1446.368	1.0704	0.103653
1447.034	1.0695	0.10395
1447.699	1.0686	0.10417275
1448.364	1.0677	0.1043955
1449.03	1.0668	0.10461825
1449.695	1.0659	0.104841
1450.36	1.065	0.10506375
1451.026	1.0641	0.1052865
1451.691	1.0632	0.10550925
1452.356	1.0623	0.105732
1453.022	1.0614	0.106029
1453.687	1.0605	0.10625175
1454.352	1.0596	0.1064745
1455.018	1.0587	0.10669725
1455.683	1.0577	0.10692
1456.348	1.0568	0.107217
1457.014	1.0559	0.10743975
1457.679	1.055	0.1076625
1458.344	1.0541	0.10788525
1459.01	1.0532	0.108108
1459.675	1.0522	0.108405
1460.34	1.0513	0.10862775
1461.006	1.0504	0.1088505
1461.671	1.0495	0.10907325
1462.336	1.0485	0.10937025
1463.002	1.0476	0.109593
1463.667	1.0467	0.10981575
1464.332	1.0458	0.11011275
1464.997	1.0448	0.1103355
1465.663	1.0439	0.11055825
1466.328	1.043	0.11085525
1466.993	1.0421	0.111078
1467.659	1.0411	0.11130075
1468.324	1.0402	0.11159775
1468.989	1.0393	0.1118205
1469.655	1.0383	0.11204325
1470.32	1.0374	0.11234025
1470.985	1.0365	0.112563
1471.651	1.0355	0.11286
1472.316	1.0346	0.11308275
1472.981	1.0336	0.1133055
1473.647	1.0327	0.1136025
1474.312	1.0318	0.11382525
1474.977	1.0308	0.11412225
1475.643	1.0299	0.114345
1476.308	1.0289	0.114642
1476.973	1.028	0.11486475
1477.639	1.027	0.11516175
1478.304	1.0261	0.1153845
1478.969	1.0251	0.1156815
1479.635	1.0242	0.11590425
1480.3	1.0232	0.11620125
1480.965	1.0223	0.116424
1481.631	1.0213	0.116721
1482.296	1.0204	0.11694375
1482.961	1.0194	0.11724075
1483.627	1.0185	0.11753775
1484.292	1.0175	0.1177605
1484.957	1.0166	0.1180575
1485.623	1.0156	0.11828025
1486.288	1.0146	0.11857725
1486.953	1.0137	0.11887425
1487.619	1.0127	0.119097
1488.284	1.0118	0.119394
1488.949	1.0108	0.119691
1489.615	1.0098	0.11991375
1490.28	1.0089	0.12021075
1490.945	1.0079	0.12050775
1491.611	1.0069	0.1207305
1492.276	1.006	0.1210275
1492.941	1.005	0.1213245
1493.607	1.004	0.1216215
1494.272	1.003	0.12184425
1494.937	1.0021	0.12214125
1495.603	1.0011	0.12243825
1496.268	1.0001	0.12273525
1496.933	0.9991	0.122958
1497.599	0.9982	0.123255
1498.264	0.9972	0.123552
1498.929	0.9962	0.123849
1499.595	0.9952	0.124146
1500.26	0.9943	0.124443
1500.925	0.9933	0.12466575
1501.591	0.9923	0.12496275
1502.256	0.9913	0.12525975
1502.921	0.9903	0.12555675
1503.587	0.9893	0.12585375
1504.252	0.9883	0.12615075
1504.917	0.9874	0.12644775
1505.583	0.9864	0.12674475
1506.248	0.9854	0.12704175
1506.913	0.9844	0.12733875
1507.579	0.9834	0.12763575
1508.244	0.9824	0.12793275
1508.909	0.9814	0.12822975
1509.575	0.9804	0.12852675
1510.24	0.9794	0.12882375
1510.905	0.9784	0.12912075
1511.571	0.9774	0.12941775
1512.236	0.9764	0.12971475
1512.901	0.9754	0.13001175
1513.567	0.9744	0.13030875
1514.232	0.9734	0.13060575
1514.897	0.9724	0.13090275
1515.563	0.9714	0.13119975
1516.228	0.9704	0.13149675
1516.893	0.9694	0.131868
1517.559	0.9684	0.132165
1518.224	0.9674	0.132462
1518.889	0.9663	0.132759
1519.555	0.9653	0.133056
1520.22	0.9643	0.133353
1520.885	0.9633	0.13372425
1521.551	0.9623	0.13402125
1522.216	0.9613	0.13431825
1522.881	0.9603	0.13461525
1523.547	0.9592	0.1349865
1524.212	0.9582	0.1352835
1524.877	0.9572	0.1355805
1525.543	0.9562	0.13595175
1526.208	0.9552	0.13624875
1526.873	0.9541	0.13654575
1527.539	0.9531	0.136917
1528.204	0.9521	0.137214
1528.869	0.9511	0.137511
1529.535	0.95	0.13788225
1530.2	0.949	0.13817925
1530.865	0.948	0.1385505
1531.531	0.9469	0.1388475
1532.196	0.9459	0.13921875
1532.861	0.9449	0.13951575
1533.527	0.9438	0.13981275
1534.192	0.9428	0.140184
1534.857	0.9418	0.140481
1535.523	0.9407	0.14085225
1536.188	0.9397	0.1412235
1536.853	0.9386	0.1415205
1537.519	0.9376	0.14189175
1538.184	0.9366	0.14218875
1538.849	0.9355	0.14256
1539.515	0.9345	0.142857
1540.18	0.9334	0.14322825
1540.845	0.9324	0.1435995
1541.511	0.9313	0.1438965
1542.176	0.9303	0.14426775
1542.841	0.9292	0.144639
1543.507	0.9282	0.144936
1544.172	0.9271	0.14530725
1544.837	0.9261	0.1456785
1545.503	0.925	0.14604975
1546.168	0.924	0.14634675
1546.833	0.9229	0.146718
1547.499	0.9218	0.14708925
1548.164	0.9208	0.1474605
1548.829	0.9197	0.1477575
1549.495	0.9187	0.14812875
1550.16	0.9176	0.1485
1550.825	0.9165	0.14887125
1551.491	0.9155	0.1492425
1552.156	0.9144	0.14961375
1552.821	0.9133	0.149985
1553.487	0.9123	0.15035625
1554.152	0.9112	0.1507275
1554.817	0.9101	0.15109875
1555.483	0.9091	0.15147
1556.148	0.908	0.15184125
1556.813	0.9069	0.1522125
1557.479	0.9058	0.15258375
1558.144	0.9048	0.152955
1558.809	0.9037	0.15332625
1559.475	0.9026	0.1536975
1560.14	0.9015	0.15406875
1560.805	0.9004	0.15444
1561.471	0.8994	0.15481125
1562.136	0.8983	0.1551825
1562.801	0.8972	0.15555375
1563.467	0.8961	0.15599925
1564.132	0.895	0.1563705
1564.797	0.8939	0.15674175
1565.463	0.8928	0.157113
1566.128	0.8917	0.15748425
1566.793	0.8907	0.15792975
1567.459	0.8896	0.158301
1568.124	0.8885	0.15867225
1568.789	0.8874	0.15911775
1569.455	0.8863	0.159489
1570.12	0.8852	0.15986025
1570.785	0.8841	0.16030575
1571.451	0.883	0.160677
1572.116	0.8819	0.1611225
1572.781	0.8808	0.16149375
1573.447	0.8797	0.16193925
1574.112	0.8785	0.1623105
1574.777	0.8774	0.16268175
1575.443	0.8763	0.16312725
1576.108	0.8752	0.16357275
1576.773	0.8741	0.163944
1577.439	0.873	0.1643895
1578.104	0.8719	0.16476075
1578.769	0.8707	0.16520625
1579.435	0.8696	0.16565175
1580.1	0.8685	0.166023
1580.765	0.8674	0.1664685
1581.431	0.8662	0.166914
1582.096	0.8651	0.16728525
1582.761	0.864	0.16773075
1583.427	0.8628	0.16817625
1584.092	0.8617	0.16862175
1584.757	0.8606	0.16906725
1585.423	0.8594	0.16951275
1586.088	0.8583	0.169884
1586.753	0.8571	0.1703295
1587.419	0.8559	0.170775
1588.084	0.8548	0.1712205
1588.749	0.8536	0.171666
1589.415	0.8524	0.1721115
1590.08	0.8512	0.17263125
1590.745	0.85	0.17307675
1591.411	0.8488	0.17352225
1592.076	0.8476	0.17396775
1592.741	0.8463	0.1744875
1593.407	0.845	0.174933
1594.072	0.8437	0.17545275
1594.737	0.8424	0.17589825
1595.403	0.8409	0.176418
1596.068	0.8394	0.177012
1596.733	0.8377	0.177606
1597.399	0.8356	0.17827425
1598.064	0.8329	0.179091
1598.729	0.8284	0.1804275
1599.395	0.8141	0.18510525
1600.06	0.8852	0.17545275
1600.725	0.8462	0.1774575
1601.391	0.8399	0.17871975
1602.056	0.8367	0.17961075
1602.721	0.8344	0.180279
1603.387	0.8326	0.180873
1604.052	0.831	0.181467
1604.717	0.8295	0.18198675
1605.383	0.8281	0.1825065
1606.048	0.8268	0.18302625
1606.713	0.8255	0.183546
1607.379	0.8242	0.18406575
1608.044	0.8229	0.1845855
1608.709	0.8217	0.18510525
1609.375	0.8204	0.18555075
1610.04	0.8192	0.1860705
1610.705	0.818	0.18659025
1611.371	0.8168	0.18711
1612.036	0.8156	0.1875555
1612.701	0.8144	0.18807525
1613.367	0.8132	0.188595
1614.032	0.812	0.18911475
1614.697	0.8108	0.1896345
1615.363	0.8096	0.19015425
1616.028	0.8085	0.19059975
1616.693	0.8073	0.1911195
1617.359	0.8061	0.19163925
1618.024	0.8049	0.192159
1618.689	0.8037	0.19267875
1619.355	0.8025	0.1931985
1620.02	0.8014	0.19371825
1620.685	0.8002	0.194238
1621.351	0.799	0.19475775
1622.016	0.7978	0.1952775
1622.681	0.7966	0.19579725
1623.347	0.7955	0.196317
1624.012	0.7943	0.196911
1624.677	0.7931	0.19743075
1625.343	0.7919	0.1979505
1626.008	0.7908	0.19847025
1626.673	0.7896	0.19899
1627.339	0.7884	0.199584
1628.004	0.7872	0.20010375
1628.669	0.786	0.2006235
1629.335	0.7849	0.20114325
1630	0.7837	0.20173725