// thickness-independent fraction of light power (for rudimentary optics) between 0 and 1
simple transmission coefficient:
0

// wavelength-independent absorption coefficient 'a' according to I(z)=I0*exp(-a*z) in [1/m]
lambert beer absorption coefficient:
1e10

// three-column refractive data for TMM calculations with wavelength [nm], n, k (must be tab-separated)
refractive data:
300	1.7065	0.8765
302.665	1.7091	0.8914
305.331	1.7129	0.9067
307.996	1.7178	0.9224
310.661	1.724	0.9385
313.327	1.7316	0.9547
315.992	1.7405	0.9709
318.657	1.7507	0.9869
321.323	1.7622	1.0029
323.988	1.7748	1.0186
326.653	1.7887	1.034
329.319	1.8038	1.0491
331.984	1.8202	1.0639
334.649	1.8378	1.0782
337.315	1.8567	1.092
339.98	1.8768	1.1052
342.645	1.8983	1.1177
345.311	1.9211	1.1294
347.976	1.9452	1.1401
350.641	1.9706	1.1497
353.307	1.9972	1.1581
355.972	2.0251	1.1652
358.637	2.0542	1.1708
361.303	2.0845	1.1747
363.968	2.1159	1.1767
366.633	2.1482	1.1767
369.299	2.1815	1.1742
371.964	2.2155	1.1692
374.629	2.2498	1.1613
377.295	2.2843	1.1503
379.96	2.3184	1.136
382.625	2.3517	1.1182
385.291	2.3836	1.0968
387.956	2.4134	1.072
390.621	2.4404	1.0438
393.287	2.4639	1.0128
395.952	2.4833	0.9795
398.617	2.4981	0.9446
401.283	2.5079	0.9091
403.948	2.5126	0.8741
406.613	2.5126	0.8406
409.279	2.5082	0.8094
411.944	2.5001	0.7815
414.609	2.4892	0.7573
417.275	2.4764	0.7373
419.94	2.4626	0.7214
422.605	2.4488	0.7096
425.271	2.4357	0.7016
427.936	2.424	0.697
430.601	2.4142	0.6951
433.267	2.4067	0.6956
435.932	2.4019	0.6977
438.597	2.4005	0.7008
441.263	2.4019	0.7028
443.928	2.4048	0.7038
446.593	2.4088	0.704
449.259	2.4136	0.7033
451.924	2.419	0.7019
454.589	2.4248	0.6998
457.255	2.4311	0.6971
459.92	2.4375	0.6938
462.585	2.4441	0.6899
465.251	2.4509	0.6855
467.916	2.4577	0.6806
470.581	2.4645	0.6753
473.246	2.4712	0.6696
475.912	2.4779	0.6635
478.577	2.4846	0.657
481.242	2.4911	0.6502
483.908	2.4975	0.6431
486.573	2.5038	0.6357
489.238	2.5099	0.628
491.904	2.5159	0.62
494.569	2.5217	0.6117
497.234	2.5273	0.6031
499.9	2.5327	0.5943
502.565	2.5379	0.5852
505.23	2.5429	0.5759
507.896	2.5476	0.5663
510.561	2.5519	0.5565
513.226	2.556	0.5464
515.892	2.5597	0.5362
518.557	2.563	0.5257
521.222	2.5659	0.5151
523.888	2.5684	0.5044
526.553	2.5705	0.4935
529.218	2.572	0.4827
531.884	2.5731	0.4717
534.549	2.5738	0.4609
537.214	2.5739	0.4501
539.88	2.5736	0.4394
542.545	2.5728	0.4288
545.21	2.5715	0.4185
547.876	2.5698	0.4084
550.541	2.5677	0.3986
553.206	2.5653	0.389
555.872	2.5625	0.3798
558.537	2.5593	0.371
561.202	2.5559	0.3625
563.868	2.5523	0.3544
566.533	2.5484	0.3467
569.198	2.5444	0.3394
571.864	2.5402	0.3325
574.529	2.5359	0.3261
577.194	2.5316	0.32
579.86	2.5272	0.3143
582.525	2.5228	0.3091
585.19	2.5184	0.3042
587.856	2.514	0.2997
590.521	2.5098	0.2956
593.186	2.5056	0.2918
595.852	2.5016	0.2884
598.517	2.4977	0.2853
601.182	2.494	0.2826
603.848	2.4906	0.2801
606.513	2.4875	0.2778
609.178	2.4846	0.2756
611.844	2.482	0.2735
614.509	2.4795	0.2715
617.174	2.4772	0.2695
619.84	2.4751	0.2677
622.505	2.4731	0.2659
625.17	2.4712	0.2641
627.836	2.4695	0.2625
630.501	2.468	0.2608
633.166	2.4665	0.2592
635.832	2.4653	0.2577
638.497	2.4641	0.2562
641.162	2.4631	0.2546
643.828	2.4622	0.2532
646.493	2.4614	0.2517
649.158	2.4607	0.2502
651.824	2.4602	0.2487
654.489	2.4597	0.2472
657.154	2.4594	0.2457
659.82	2.4592	0.2442
662.485	2.459	0.2427
665.15	2.459	0.2411
667.816	2.4591	0.2396
670.481	2.4592	0.238
673.146	2.4594	0.2363
675.812	2.4597	0.2347
678.477	2.4601	0.233
681.142	2.4605	0.2312
683.808	2.4611	0.2294
686.473	2.4616	0.2276
689.138	2.4623	0.2258
691.804	2.463	0.2239
694.469	2.4638	0.222
697.134	2.4646	0.2201
699.8	2.4655	0.2181
702.465	2.4665	0.2161
705.13	2.4675	0.2142
707.796	2.4686	0.2122
710.461	2.4698	0.2102
713.126	2.4711	0.2082
715.792	2.4725	0.2062
718.457	2.4741	0.2043
721.122	2.4759	0.2023
723.788	2.4779	0.2004
726.453	2.4802	0.1986
729.118	2.4828	0.1967
731.784	2.4859	0.1948
734.449	2.4897	0.1929
737.114	2.4941	0.1907
739.78	2.4995	0.1882
742.445	2.5061	0.1849
745.11	2.5138	0.1804
747.776	2.5228	0.1738
750.441	2.5324	0.1643
753.106	2.5415	0.1508
755.772	2.5479	0.133
758.437	2.5491	0.1124
761.102	2.5438	0.0921
763.768	2.5333	0.0752
766.433	2.5204	0.0636
769.098	2.508	0.0567
771.764	2.498	0.0531
774.429	2.4903	0.0499
777.094	2.4836	0.0467
779.76	2.4776	0.0436
782.425	2.472	0.0406
785.09	2.4667	0.0376
787.756	2.4616	0.0347
790.421	2.4567	0.032
793.086	2.4519	0.0293
795.752	2.4472	0.0267
798.417	2.4426	0.0242
801.082	2.438	0.0219
803.747	2.4335	0.0196
806.413	2.4291	0.0175
809.078	2.4247	0.0155
811.743	2.4204	0.0136
814.409	2.4161	0.0119
817.074	2.4119	0.0103
819.739	2.4077	0.0088
822.405	2.4036	0.0074
825.07	2.3996	0.0061
827.735	2.3955	0.005
830.401	2.3916	0.004
833.066	2.3877	0.0032
835.731	2.3839	0.0024
838.397	2.3802	0.0018
841.062	2.3766	0.0013
843.727	2.3731	9E-4
846.393	2.3696	6E-4
849.058	2.3664	5E-4
851.723	2.3632	4E-4
854.389	2.3603	3E-4
857.054	2.3575	3E-4
859.719	2.3548	2E-4
862.385	2.3521	2E-4
865.05	2.3496	2E-4
867.715	2.3471	1E-4
870.381	2.3447	1E-4
873.046	2.3424	1E-4
875.711	2.3401	1E-4
878.377	2.3379	0
881.042	2.3357	0
883.707	2.3336	0
886.373	2.3316	0
889.038	2.3296	0
891.703	2.3276	0
894.369	2.3257	0
897.034	2.3238	0
899.699	2.322	0
902.365	2.3202	0
905.03	2.3185	0
907.695	2.3168	0
910.361	2.3151	0
913.026	2.3134	0
915.691	2.3118	0
918.357	2.3102	0
921.022	2.3087	0
923.687	2.3072	0
926.353	2.3057	0
929.018	2.3042	0
931.683	2.3027	0
934.349	2.3013	0
937.014	2.2999	0
939.679	2.2986	0
942.345	2.2972	0
945.01	2.2959	0
947.675	2.2946	0
950.341	2.2933	0
953.006	2.292	0
955.671	2.2908	0
958.337	2.2896	0
961.002	2.2884	0
963.667	2.2872	0
966.333	2.286	0
968.998	2.2848	0
971.663	2.2837	0
974.329	2.2826	0
976.994	2.2815	0
979.659	2.2804	0
982.325	2.2793	0
984.99	2.2783	0
987.655	2.2772	0
990.321	2.2762	0
992.986	2.2752	0
995.651	2.2742	0
998.317	2.2732	0
1000.982	2.2722	0
1003.647	2.2713	0
1006.313	2.2703	0
1008.978	2.2694	0
1011.643	2.2684	0
1014.309	2.2675	0
1016.974	2.2666	0
1019.639	2.2657	0
1022.305	2.2649	0
1024.97	2.264	0
1027.635	2.2631	0
1030.301	2.2623	0
1032.966	2.2615	0
1035.631	2.2606	0
1038.297	2.2598	0
1040.962	2.259	0
1043.627	2.2582	0
1046.293	2.2574	0
1048.958	2.2566	0
1051.623	2.2559	0
1054.289	2.2551	0
1056.954	2.2544	0
1059.619	2.2536	0
1062.285	2.2529	0
1064.95	2.2522	0
1067.615	2.2514	0
1070.281	2.2507	0
1072.946	2.25	0
1075.611	2.2493	0
1078.277	2.2486	0
1080.942	2.248	0
1083.607	2.2473	0
1086.273	2.2466	0
1088.938	2.246	0
1091.603	2.2453	0
1094.269	2.2447	0
1096.934	2.244	0
1099.599	2.2434	0
1102.265	2.2428	0
1104.93	2.2421	0
1107.595	2.2415	0
1110.261	2.2409	0
1112.926	2.2403	0
1115.591	2.2397	0
1118.257	2.2391	0
1120.922	2.2386	0
1123.587	2.238	0
1126.253	2.2374	0
1128.918	2.2368	0
1131.583	2.2363	0
1134.248	2.2357	0
1136.914	2.2352	0
1139.579	2.2346	0
1142.244	2.2341	0
1144.91	2.2336	0
1147.575	2.233	0
1150.24	2.2325	0
1152.906	2.232	0
1155.571	2.2315	0
1158.236	2.231	0
1160.902	2.2305	0
1163.567	2.23	0
1166.232	2.2295	0
1168.898	2.229	0
1171.563	2.2285	0
1174.228	2.228	0
1176.894	2.2275	0
1179.559	2.2271	0
1182.224	2.2266	0
1184.89	2.2261	0
1187.555	2.2257	0
1190.22	2.2252	0
1192.886	2.2248	0
1195.551	2.2243	0
1198.216	2.2239	0
1200.882	2.2234	0
1203.547	2.223	0
1206.212	2.2226	0
1208.878	2.2221	0
1211.543	2.2217	0
1214.208	2.2213	0
1216.874	2.2209	0
1219.539	2.2205	0
1222.204	2.22	0
1224.87	2.2196	0
1227.535	2.2192	0
1230.2	2.2188	0
1232.866	2.2184	0
1235.531	2.218	0
1238.196	2.2177	0
1240.862	2.2173	0
1243.527	2.2169	0
1246.192	2.2165	0
1248.858	2.2161	0
1251.523	2.2157	0
1254.188	2.2154	0
1256.854	2.215	0
1259.519	2.2146	0
1262.184	2.2143	0
1264.85	2.2139	0
1267.515	2.2136	0
1270.18	2.2132	0
1272.846	2.2128	0
1275.511	2.2125	0
1278.176	2.2122	0
1280.842	2.2118	0
1283.507	2.2115	0
1286.172	2.2111	0
1288.838	2.2108	0
1291.503	2.2105	0
1294.168	2.2101	0
1296.834	2.2098	0
1299.499	2.2095	0
1302.164	2.2092	0
1304.83	2.2088	0
1307.495	2.2085	0
1310.16	2.2082	0
1312.826	2.2079	0
1315.491	2.2076	0
1318.156	2.2073	0
1320.822	2.207	0
1323.487	2.2067	0
1326.152	2.2064	0
1328.818	2.2061	0
1331.483	2.2058	0
1334.148	2.2055	0
1336.814	2.2052	0
1339.479	2.2049	0
1342.144	2.2046	0
1344.81	2.2043	0
1347.475	2.204	0
1350.14	2.2037	0
1352.806	2.2035	0
1355.471	2.2032	0
1358.136	2.2029	0
1360.802	2.2026	0
1363.467	2.2024	0
1366.132	2.2021	0
1368.798	2.2018	0
1371.463	2.2015	0
1374.128	2.2013	0
1376.794	2.201	0
1379.459	2.2008	0
1382.124	2.2005	0
1384.79	2.2002	0
1387.455	2.2	0
1390.12	2.1997	0
1392.786	2.1995	0
1395.451	2.1992	0
1398.116	2.199	0
1400.782	2.1987	0
1403.447	2.1985	0
1406.112	2.1982	0
1408.778	2.198	0
1411.443	2.1978	0
1414.108	2.1975	0
1416.774	2.1973	0
1419.439	2.197	0
1422.104	2.1968	0
1424.77	2.1966	0
1427.435	2.1963	0
1430.1	2.1961	0
1432.766	2.1959	0
1435.431	2.1957	0
1438.096	2.1954	0
1440.762	2.1952	0
1443.427	2.195	0
1446.092	2.1948	0
1448.758	2.1945	0
1451.423	2.1943	0
1454.088	2.1941	0
1456.754	2.1939	0
1459.419	2.1937	0
1462.084	2.1935	0
1464.749	2.1933	0
1467.415	2.193	0
1470.08	2.1928	0
1472.745	2.1926	0
1475.411	2.1924	0
1478.076	2.1922	0
1480.741	2.192	0
1483.407	2.1918	0
1486.072	2.1916	0
1488.737	2.1914	0
1491.403	2.1912	0
1494.068	2.191	0
1496.733	2.1908	0
1499.399	2.1906	0
1502.064	2.1904	0
1504.729	2.1902	0
1507.395	2.1901	0
1510.06	2.1899	0
1512.725	2.1897	0
1515.391	2.1895	0
1518.056	2.1893	0
1520.721	2.1891	0
1523.387	2.1889	0
1526.052	2.1887	0
1528.717	2.1886	0
1531.383	2.1884	0
1534.048	2.1882	0
1536.713	2.188	0
1539.379	2.1878	0
1542.044	2.1877	0
1544.709	2.1875	0
1547.375	2.1873	0
1550.04	2.1871	0
1552.705	2.187	0
1555.371	2.1868	0
1558.036	2.1866	0
1560.701	2.1865	0
1563.367	2.1863	0
1566.032	2.1861	0
1568.697	2.186	0
1571.363	2.1858	0
1574.028	2.1856	0
1576.693	2.1855	0
1579.359	2.1853	0
1582.024	2.1851	0
1584.689	2.185	0
1587.355	2.1848	0
1590.02	2.1847	0
1592.685	2.1845	0
1595.351	2.1843	0
1598.016	2.1842	0
1600.681	2.184	0
1603.347	2.1839	0
1606.012	2.1837	0
1608.677	2.1836	0
1611.343	2.1834	0
1614.008	2.1833	0
1616.673	2.1831	0
1619.339	2.183	0
1622.004	2.1828	0
1624.669	2.1827	0
1627.335	2.1825	0
1630	2.1824	0