// thickness-independent fraction of light power (for rudimentary optics) between 0 and 1
simple transmission coefficient:
0

// wavelength-independent absorption coefficient 'a' according to I(z)=I0*exp(-a*z) in [1/m]
lambert beer absorption coefficient:
1e10

// three-column refractive data for TMM calculations with wavelength [nm], n, k (must be tab-separated)
refractive data:
300	1.6892	0.8743
302.665	1.6892	0.8926
305.331	1.6912	0.912
307.996	1.6957	0.9322
310.661	1.7031	0.9524
313.327	1.7126	0.9718
315.992	1.7237	0.9906
318.657	1.7364	1.0088
321.323	1.7505	1.0264
323.988	1.7659	1.0434
326.653	1.7826	1.0598
329.319	1.8006	1.0755
331.984	1.8199	1.0905
334.649	1.8404	1.1049
337.315	1.8622	1.1184
339.98	1.8853	1.131
342.645	1.9097	1.1426
345.311	1.9354	1.1532
347.976	1.9623	1.1625
350.641	1.9905	1.1705
353.307	2.02	1.177
355.972	2.0506	1.1817
358.637	2.0824	1.1846
361.303	2.1152	1.1853
363.968	2.1488	1.1836
366.633	2.1831	1.1793
369.299	2.2177	1.1722
371.964	2.2525	1.162
374.629	2.2868	1.1485
377.295	2.3203	1.1316
379.96	2.3523	1.1113
382.625	2.3823	1.0877
385.291	2.4097	1.061
387.956	2.4337	1.0316
390.621	2.4538	1.0001
393.287	2.4698	0.9673
395.952	2.4812	0.9339
398.617	2.4882	0.9009
401.283	2.491	0.869
403.948	2.49	0.8391
406.613	2.4857	0.8117
409.279	2.4788	0.7872
411.944	2.47	0.766
414.609	2.4601	0.748
417.275	2.4495	0.7331
419.94	2.4389	0.7213
422.605	2.4287	0.7124
425.271	2.4192	0.706
427.936	2.4109	0.7019
430.601	2.4041	0.7
433.267	2.3993	0.6997
435.932	2.397	0.7005
438.597	2.3966	0.7008
441.263	2.3974	0.701
443.928	2.3992	0.701
446.593	2.4019	0.7009
449.259	2.4056	0.7006
451.924	2.41	0.7001
454.589	2.4153	0.6993
457.255	2.4212	0.6982
459.92	2.4279	0.6966
462.585	2.4352	0.6944
465.251	2.443	0.6917
467.916	2.4513	0.6884
470.581	2.46	0.6844
473.246	2.469	0.6796
475.912	2.4782	0.674
478.577	2.4875	0.6676
481.242	2.4967	0.6603
483.908	2.5058	0.6521
486.573	2.5146	0.6432
489.238	2.523	0.6334
491.904	2.5308	0.6231
494.569	2.5381	0.6121
497.234	2.5447	0.6005
499.9	2.5506	0.5886
502.565	2.5558	0.5763
505.23	2.5601	0.5638
507.896	2.5638	0.5512
510.561	2.5666	0.5386
513.226	2.5687	0.526
515.892	2.5701	0.5135
518.557	2.5708	0.5012
521.222	2.5709	0.4892
523.888	2.5705	0.4775
526.553	2.5695	0.4662
529.218	2.568	0.4552
531.884	2.5661	0.4446
534.549	2.5639	0.4345
537.214	2.5613	0.4248
539.88	2.5585	0.4155
542.545	2.5555	0.4067
545.21	2.5523	0.3983
547.876	2.5489	0.3903
550.541	2.5455	0.3827
553.206	2.542	0.3756
555.872	2.5384	0.3688
558.537	2.5349	0.3624
561.202	2.5313	0.3563
563.868	2.5278	0.3505
566.533	2.5243	0.3451
569.198	2.5209	0.34
571.864	2.5176	0.3351
574.529	2.5143	0.3305
577.194	2.5112	0.3262
579.86	2.5081	0.322
582.525	2.5052	0.3181
585.19	2.5023	0.3144
587.856	2.4996	0.3108
590.521	2.4971	0.3075
593.186	2.4946	0.3043
595.852	2.4923	0.3012
598.517	2.4902	0.2983
601.182	2.4882	0.2955
603.848	2.4864	0.2927
606.513	2.4847	0.2899
609.178	2.4832	0.2872
611.844	2.4817	0.2844
614.509	2.4803	0.2817
617.174	2.479	0.2791
619.84	2.4777	0.2764
622.505	2.4765	0.2737
625.17	2.4753	0.2711
627.836	2.4742	0.2685
630.501	2.4731	0.2659
633.166	2.472	0.2634
635.832	2.4709	0.2609
638.497	2.4699	0.2584
641.162	2.4689	0.256
643.828	2.4679	0.2537
646.493	2.4669	0.2514
649.158	2.4659	0.2492
651.824	2.465	0.2471
654.489	2.4641	0.2451
657.154	2.4633	0.2432
659.82	2.4626	0.2414
662.485	2.4621	0.2398
665.15	2.4619	0.2381
667.816	2.4618	0.2364
670.481	2.4619	0.2345
673.146	2.4618	0.2324
675.812	2.4617	0.2304
678.477	2.4615	0.2284
681.142	2.4612	0.2266
683.808	2.4611	0.225
686.473	2.4611	0.2234
689.138	2.4612	0.222
691.804	2.4615	0.2207
694.469	2.4619	0.2195
697.134	2.4626	0.2183
699.8	2.4635	0.2172
702.465	2.4647	0.2161
705.13	2.4661	0.215
707.796	2.4679	0.2138
710.461	2.4699	0.2126
713.126	2.4723	0.2113
715.792	2.475	0.2099
718.457	2.4781	0.2082
721.122	2.4816	0.2063
723.788	2.4854	0.2041
726.453	2.4897	0.2015
729.118	2.4943	0.1983
731.784	2.4992	0.1946
734.449	2.5044	0.1902
737.114	2.5098	0.185
739.78	2.5153	0.179
742.445	2.5207	0.1719
745.11	2.526	0.1638
747.776	2.5308	0.1545
750.441	2.535	0.1441
753.106	2.5383	0.1327
755.772	2.5405	0.1204
758.437	2.5412	0.1073
761.102	2.5403	0.0938
763.768	2.5378	0.0801
766.433	2.5334	0.0667
769.098	2.5274	0.0538
771.764	2.5198	0.0419
774.429	2.5109	0.0313
777.094	2.5009	0.0222
779.76	2.4903	0.0147
782.425	2.4795	0.0089
785.09	2.4687	0.0047
787.756	2.4584	0.0021
790.421	2.4488	9E-4
793.086	2.4406	8E-4
795.752	2.4335	7E-4
798.417	2.4272	6E-4
801.082	2.4213	6E-4
803.747	2.4159	5E-4
806.413	2.4108	4E-4
809.078	2.406	4E-4
811.743	2.4015	3E-4
814.409	2.3972	3E-4
817.074	2.3931	3E-4
819.739	2.3892	2E-4
822.405	2.3855	2E-4
825.07	2.3819	1E-4
827.735	2.3784	1E-4
830.401	2.3751	1E-4
833.066	2.3719	1E-4
835.731	2.3688	1E-4
838.397	2.3658	0
841.062	2.3628	0
843.727	2.36	0
846.393	2.3573	0
849.058	2.3546	0
851.723	2.352	0
854.389	2.3495	0
857.054	2.3471	0
859.719	2.3447	0
862.385	2.3424	0
865.05	2.3401	0
867.715	2.3379	0
870.381	2.3358	0
873.046	2.3337	0
875.711	2.3316	0
878.377	2.3296	0
881.042	2.3276	0
883.707	2.3257	0
886.373	2.3238	0
889.038	2.322	0
891.703	2.3202	0
894.369	2.3184	0
897.034	2.3167	0
899.699	2.315	0
902.365	2.3133	0
905.03	2.3117	0
907.695	2.3101	0
910.361	2.3085	0
913.026	2.307	0
915.691	2.3054	0
918.357	2.304	0
921.022	2.3025	0
923.687	2.301	0
926.353	2.2996	0
929.018	2.2982	0
931.683	2.2969	0
934.349	2.2955	0
937.014	2.2942	0
939.679	2.2929	0
942.345	2.2916	0
945.01	2.2903	0
947.675	2.2891	0
950.341	2.2878	0
953.006	2.2866	0
955.671	2.2854	0
958.337	2.2843	0
961.002	2.2831	0
963.667	2.282	0
966.333	2.2809	0
968.998	2.2798	0
971.663	2.2787	0
974.329	2.2776	0
976.994	2.2765	0
979.659	2.2755	0
982.325	2.2744	0
984.99	2.2734	0
987.655	2.2724	0
990.321	2.2714	0
992.986	2.2705	0
995.651	2.2695	0
998.317	2.2685	0
1000.982	2.2676	0
1003.647	2.2667	0
1006.313	2.2658	0
1008.978	2.2648	0
1011.643	2.264	0
1014.309	2.2631	0
1016.974	2.2622	0
1019.639	2.2613	0
1022.305	2.2605	0
1024.97	2.2597	0
1027.635	2.2588	0
1030.301	2.258	0
1032.966	2.2572	0
1035.631	2.2564	0
1038.297	2.2556	0
1040.962	2.2548	0
1043.627	2.254	0
1046.293	2.2533	0
1048.958	2.2525	0
1051.623	2.2518	0
1054.289	2.251	0
1056.954	2.2503	0
1059.619	2.2496	0
1062.285	2.2489	0
1064.95	2.2482	0
1067.615	2.2475	0
1070.281	2.2468	0
1072.946	2.2461	0
1075.611	2.2454	0
1078.277	2.2448	0
1080.942	2.2441	0
1083.607	2.2434	0
1086.273	2.2428	0
1088.938	2.2421	0
1091.603	2.2415	0
1094.269	2.2409	0
1096.934	2.2403	0
1099.599	2.2396	0
1102.265	2.239	0
1104.93	2.2384	0
1107.595	2.2378	0
1110.261	2.2373	0
1112.926	2.2367	0
1115.591	2.2361	0
1118.257	2.2355	0
1120.922	2.2349	0
1123.587	2.2344	0
1126.253	2.2338	0
1128.918	2.2333	0
1131.583	2.2327	0
1134.248	2.2322	0
1136.914	2.2317	0
1139.579	2.2311	0
1142.244	2.2306	0
1144.91	2.2301	0
1147.575	2.2296	0
1150.24	2.2291	0
1152.906	2.2286	0
1155.571	2.2281	0
1158.236	2.2276	0
1160.902	2.2271	0
1163.567	2.2266	0
1166.232	2.2261	0
1168.898	2.2256	0
1171.563	2.2251	0
1174.228	2.2247	0
1176.894	2.2242	0
1179.559	2.2237	0
1182.224	2.2233	0
1184.89	2.2228	0
1187.555	2.2224	0
1190.22	2.2219	0
1192.886	2.2215	0
1195.551	2.2211	0
1198.216	2.2206	0
1200.882	2.2202	0
1203.547	2.2198	0
1206.212	2.2194	0
1208.878	2.2189	0
1211.543	2.2185	0
1214.208	2.2181	0
1216.874	2.2177	0
1219.539	2.2173	0
1222.204	2.2169	0
1224.87	2.2165	0
1227.535	2.2161	0
1230.2	2.2157	0
1232.866	2.2153	0
1235.531	2.2149	0
1238.196	2.2146	0
1240.862	2.2142	0
1243.527	2.2138	0
1246.192	2.2134	0
1248.858	2.2131	0
1251.523	2.2127	0
1254.188	2.2123	0
1256.854	2.212	0
1259.519	2.2116	0
1262.184	2.2113	0
1264.85	2.2109	0
1267.515	2.2105	0
1270.18	2.2102	0
1272.846	2.2099	0
1275.511	2.2095	0
1278.176	2.2092	0
1280.842	2.2088	0
1283.507	2.2085	0
1286.172	2.2082	0
1288.838	2.2079	0
1291.503	2.2075	0
1294.168	2.2072	0
1296.834	2.2069	0
1299.499	2.2066	0
1302.164	2.2062	0
1304.83	2.2059	0
1307.495	2.2056	0
1310.16	2.2053	0
1312.826	2.205	0
1315.491	2.2047	0
1318.156	2.2044	0
1320.822	2.2041	0
1323.487	2.2038	0
1326.152	2.2035	0
1328.818	2.2032	0
1331.483	2.2029	0
1334.148	2.2026	0
1336.814	2.2023	0
1339.479	2.2021	0
1342.144	2.2018	0
1344.81	2.2015	0
1347.475	2.2012	0
1350.14	2.2009	0
1352.806	2.2007	0
1355.471	2.2004	0
1358.136	2.2001	0
1360.802	2.1999	0
1363.467	2.1996	0
1366.132	2.1993	0
1368.798	2.1991	0
1371.463	2.1988	0
1374.128	2.1985	0
1376.794	2.1983	0
1379.459	2.198	0
1382.124	2.1978	0
1384.79	2.1975	0
1387.455	2.1973	0
1390.12	2.197	0
1392.786	2.1968	0
1395.451	2.1965	0
1398.116	2.1963	0
1400.782	2.196	0
1403.447	2.1958	0
1406.112	2.1956	0
1408.778	2.1953	0
1411.443	2.1951	0
1414.108	2.1949	0
1416.774	2.1946	0
1419.439	2.1944	0
1422.104	2.1942	0
1424.77	2.1939	0
1427.435	2.1937	0
1430.1	2.1935	0
1432.766	2.1933	0
1435.431	2.193	0
1438.096	2.1928	0
1440.762	2.1926	0
1443.427	2.1924	0
1446.092	2.1922	0
1448.758	2.1919	0
1451.423	2.1917	0
1454.088	2.1915	0
1456.754	2.1913	0
1459.419	2.1911	0
1462.084	2.1909	0
1464.749	2.1907	0
1467.415	2.1905	0
1470.08	2.1903	0
1472.745	2.1901	0
1475.411	2.1899	0
1478.076	2.1897	0
1480.741	2.1895	0
1483.407	2.1893	0
1486.072	2.1891	0
1488.737	2.1889	0
1491.403	2.1887	0
1494.068	2.1885	0
1496.733	2.1883	0
1499.399	2.1881	0
1502.064	2.1879	0
1504.729	2.1877	0
1507.395	2.1875	0
1510.06	2.1874	0
1512.725	2.1872	0
1515.391	2.187	0
1518.056	2.1868	0
1520.721	2.1866	0
1523.387	2.1864	0
1526.052	2.1863	0
1528.717	2.1861	0
1531.383	2.1859	0
1534.048	2.1857	0
1536.713	2.1856	0
1539.379	2.1854	0
1542.044	2.1852	0
1544.709	2.185	0
1547.375	2.1849	0
1550.04	2.1847	0
1552.705	2.1845	0
1555.371	2.1844	0
1558.036	2.1842	0
1560.701	2.184	0
1563.367	2.1839	0
1566.032	2.1837	0
1568.697	2.1835	0
1571.363	2.1834	0
1574.028	2.1832	0
1576.693	2.183	0
1579.359	2.1829	0
1582.024	2.1827	0
1584.689	2.1826	0
1587.355	2.1824	0
1590.02	2.1823	0
1592.685	2.1821	0
1595.351	2.182	0
1598.016	2.1818	0
1600.681	2.1816	0
1603.347	2.1815	0
1606.012	2.1813	0
1608.677	2.1812	0
1611.343	2.181	0
1614.008	2.1809	0
1616.673	2.1807	0
1619.339	2.1806	0
1622.004	2.1805	0
1624.669	2.1803	0
1627.335	2.1802	0
1630	2.18	0